ACCELEROMETER X (m/s²),ACCELEROMETER Y (m/s²),ACCELEROMETER Z (m/s²),GYROSCOPE X (rad/s),GYROSCOPE Y (rad/s),GYROSCOPE Z (rad/s),MAGNETIC FIELD X (μT),MAGNETIC FIELD Y (μT),MAGNETIC FIELD Z (μT),Time since start in ms ,YYYY-MO-DD HH-MI-SS_SSS
0.898,4.11,8.304,0.138,0.063,-0.12,-21.5,8.7,-36.1,9,2016-08-02 15:30:41:806
0.378,3.84,8.692,0.138,0.063,-0.12,-21.2,7.6,-36.3,109,2016-08-02 15:30:41:906
0.378,3.84,8.692,0.32,0.998,0.135,-21.2,7.6,-36.3,209,2016-08-02 15:30:42:006
-0.076,3.531,9.313,0.32,0.998,0.135,-20.0,6.2,-36.5,308,2016-08-02 15:30:42:105
-0.076,3.531,9.313,-0.252,0.494,-0.053,-20.0,6.2,-36.5,408,2016-08-02 15:30:42:205
-1.657,3.791,9.435,-0.252,0.494,-0.053,-17.1,5.3,-37.6,508,2016-08-02 15:30:42:305
-1.657,3.791,9.435,-0.252,0.494,-0.053,-17.1,5.3,-37.6,609,2016-08-02 15:30:42:406
0.129,3.788,9.173,-0.207,-0.759,0.288,-14.3,5.9,-38.5,709,2016-08-02 15:30:42:506
-0.083,3.861,8.581,-0.207,-0.759,0.288,-14.3,5.9,-38.5,809,2016-08-02 15:30:42:606
-0.083,3.861,8.581,-0.266,0.598,-0.357,-13.5,7.8,-38.8,909,2016-08-02 15:30:42:706
0.212,3.972,8.219,-0.266,0.598,-0.357,-13.5,7.8,-38.8,1009,2016-08-02 15:30:42:806
0.212,3.972,8.219,0.339,0.163,-0.207,-13.7,8.8,-38.8,1109,2016-08-02 15:30:42:906
-0.259,3.873,7.962,0.339,0.163,-0.207,-13.7,8.8,-38.8,1209,2016-08-02 15:30:43:006
-0.259,3.873,7.962,0.339,0.163,-0.207,-12.1,7.3,-39.4,1309,2016-08-02 15:30:43:106
-1.101,4.375,8.805,-0.203,0.337,-0.327,-12.1,7.3,-39.4,1409,2016-08-02 15:30:43:206
-1.101,4.375,8.805,-0.203,0.337,-0.327,-10.0,5.4,-40.3,1508,2016-08-02 15:30:43:305
-3.321,2.137,6.974,-0.103,-0.089,-0.081,-10.0,5.4,-40.3,1609,2016-08-02 15:30:43:406
-5.677,1.909,6.754,-0.103,-0.089,-0.081,-7.9,4.7,-40.4,1708,2016-08-02 15:30:43:505
-5.677,1.909,6.754,-0.103,-0.089,-0.081,-7.9,4.7,-40.4,1809,2016-08-02 15:30:43:606
-9.686,-7.789,5.026,0.583,1.298,-3.618,-2.7,6.1,-39.7,1909,2016-08-02 15:30:43:706
-9.686,-7.789,5.026,0.583,1.298,-3.618,-2.7,6.1,-39.7,2009,2016-08-02 15:30:43:806
-13.288,-5.693,3.428,-0.473,-0.66,0.185,8.2,12.4,-35.0,2109,2016-08-02 15:30:43:906
-13.288,-5.693,3.428,-0.473,-0.66,0.185,8.2,12.4,-35.0,2209,2016-08-02 15:30:44:006
-4.775,-6.514,1.539,0.637,0.41,0.142,12.7,22.0,-30.4,2309,2016-08-02 15:30:44:106
-4.775,-6.514,1.539,0.637,0.41,0.142,12.7,22.0,-30.4,2409,2016-08-02 15:30:44:206
-5.142,-6.644,3.442,0.637,0.41,0.142,10.3,30.0,-27.4,2509,2016-08-02 15:30:44:306
-0.226,-5.838,5.988,-1.218,-0.237,1.064,10.3,30.0,-27.4,2609,2016-08-02 15:30:44:406
-0.226,-5.838,5.988,-1.218,-0.237,1.064,3.1,32.6,-28.6,2709,2016-08-02 15:30:44:506
-6.291,-8.056,0.666,-1.62,2.432,-1.221,3.1,32.6,-28.6,2810,2016-08-02 15:30:44:607
-6.291,-8.056,0.666,-1.62,2.432,-1.221,3.8,35.6,-25.5,2911,2016-08-02 15:30:44:708
-5.694,-7.633,-0.45,0.129,0.079,-0.023,3.8,35.6,-25.5,3020,2016-08-02 15:30:44:817
-5.694,-7.633,-0.45,0.129,0.079,-0.023,5.5,39.2,-21.4,3111,2016-08-02 15:30:44:908
-4.708,-7.01,-2.37,0.129,0.079,-0.023,5.5,39.2,-21.4,3210,2016-08-02 15:30:45:007
-4.708,-7.01,-2.37,1.644,1.018,-0.756,6.1,42.6,-17.9,3310,2016-08-02 15:30:45:107
-3.909,-10.163,2.982,1.644,1.018,-0.756,6.1,42.6,-17.9,3411,2016-08-02 15:30:45:208
-1.654,-12.321,-0.788,0.489,-0.792,-1.238,3.4,41.4,-20.3,3511,2016-08-02 15:30:45:308
-1.654,-12.321,-0.788,0.489,-0.792,-1.238,3.4,41.4,-20.3,3610,2016-08-02 15:30:45:407
-2.073,-8.846,0.894,0.489,-0.792,-1.238,-1.0,40.6,-22.3,3710,2016-08-02 15:30:45:507
-2.073,-8.846,0.894,-0.065,-2.259,-0.186,-1.0,40.6,-22.3,3809,2016-08-02 15:30:45:606
-0.24,-11.507,2.63,-0.065,-2.259,-0.186,-4.3,39.6,-23.8,3910,2016-08-02 15:30:45:707
-0.24,-11.507,2.63,0.29,0.371,-0.575,-4.3,39.6,-23.8,4011,2016-08-02 15:30:45:808
-0.068,-10.12,1.466,0.29,0.371,-0.575,-10.8,39.4,-22.9,4110,2016-08-02 15:30:45:907
-0.068,-10.12,1.466,0.29,0.371,-0.575,-10.8,39.4,-22.9,4210,2016-08-02 15:30:46:007
-4.776,-10.379,-0.519,-0.276,1.203,-0.357,-17.1,37.9,-22.3,4310,2016-08-02 15:30:46:107
3.985,-13.57,-1.627,-0.276,1.203,-0.357,-17.1,37.9,-22.3,4411,2016-08-02 15:30:46:208
3.985,-13.57,-1.627,-0.429,1.714,0.092,-19.1,38.9,-20.3,4509,2016-08-02 15:30:46:306
2.439,-5.963,-0.981,-0.429,1.714,0.092,-19.1,38.9,-20.3,4611,2016-08-02 15:30:46:408
2.439,-5.963,-0.981,0.421,1.983,0.717,-15.4,42.3,-17.0,4711,2016-08-02 15:30:46:508
-0.761,-10.238,-2.564,0.421,1.983,0.717,-15.4,42.3,-17.0,4809,2016-08-02 15:30:46:606
-0.761,-10.238,-2.564,0.421,1.983,0.717,-10.5,45.7,-13.0,4909,2016-08-02 15:30:46:706
2.784,-9.904,-0.746,0.673,0.82,-0.248,-10.5,45.7,-13.0,5009,2016-08-02 15:30:46:806
2.784,-9.904,-0.746,0.673,0.82,-0.248,-5.6,45.7,-13.3,5109,2016-08-02 15:30:46:906
2.706,-7.349,-8.288,-0.422,3.524,-0.825,-5.6,45.7,-13.3,5208,2016-08-02 15:30:47:005
1.885,-11.205,-2.347,-0.422,3.524,-0.825,-0.4,42.2,-18.0,5308,2016-08-02 15:30:47:105
1.885,-11.205,-2.347,-0.422,3.524,-0.825,-0.4,42.2,-18.0,5409,2016-08-02 15:30:47:206
4.79,-11.967,1.03,-2.201,-1.115,0.057,1.1,37.3,-24.2,5508,2016-08-02 15:30:47:305
4.79,-11.967,1.03,-2.201,-1.115,0.057,1.1,37.3,-24.2,5608,2016-08-02 15:30:47:405
1.36,-5.889,0.294,-1.387,-0.588,0.756,-1.0,38.0,-23.4,5709,2016-08-02 15:30:47:506
1.36,-5.889,0.294,-1.387,-0.588,0.756,-1.0,38.0,-23.4,5809,2016-08-02 15:30:47:606
0.509,-15.27,-12.042,-0.121,1.742,2.391,-2.3,42.4,-16.4,5908,2016-08-02 15:30:47:705
0.509,-15.27,-12.042,-0.121,1.742,2.391,-2.3,42.4,-16.4,6009,2016-08-02 15:30:47:806
-2.4,-7.797,4.656,-0.121,1.742,2.391,3.2,45.8,-9.4,6109,2016-08-02 15:30:47:906
-1.92,-11.689,7.469,1.757,-0.466,-2.185,3.2,45.8,-9.4,6209,2016-08-02 15:30:48:006
-1.92,-11.689,7.469,1.757,-0.466,-2.185,7.1,45.0,-11.0,6308,2016-08-02 15:30:48:105
7.63,-6.423,-13.955,1.166,1.596,0.437,7.1,45.0,-11.0,6409,2016-08-02 15:30:48:206
7.63,-6.423,-13.955,1.166,1.596,0.437,7.2,42.7,-15.5,6508,2016-08-02 15:30:48:305
-7.15,-13.364,-4.106,1.166,1.596,0.437,7.2,42.7,-15.5,6609,2016-08-02 15:30:48:406
-7.15,-13.364,-4.106,-0.429,-1.472,0.883,3.2,40.0,-22.0,6709,2016-08-02 15:30:48:506
0.267,-14.696,-1.202,-0.429,-1.472,0.883,3.2,40.0,-22.0,6809,2016-08-02 15:30:48:606
0.267,-14.696,-1.202,-1.4,0.353,0.63,5.2,37.9,-27.0,6908,2016-08-02 15:30:48:705
0.754,-5.491,-2.271,-1.4,0.353,0.63,5.2,37.9,-27.0,7008,2016-08-02 15:30:48:805
1.164,-9.914,-1.937,-0.98,-1.116,0.401,7.2,40.3,-21.5,7108,2016-08-02 15:30:48:905
1.164,-9.914,-1.937,-0.98,-1.116,0.401,7.2,40.3,-21.5,7208,2016-08-02 15:30:49:005
-2.564,-19.495,1.377,-0.98,-1.116,0.401,10.6,42.5,-16.1,7308,2016-08-02 15:30:49:105
-2.564,-19.495,1.377,1.87,-1.416,-0.326,10.6,42.5,-16.1,7409,2016-08-02 15:30:49:206
2.836,-8.325,-0.368,1.87,-1.416,-0.326,8.3,41.6,-18.8,7509,2016-08-02 15:30:49:306
2.836,-8.325,-0.368,1.074,-0.43,-0.886,8.3,41.6,-18.8,7609,2016-08-02 15:30:49:406
-3.964,-12.194,-0.603,1.074,-0.43,-0.886,2.3,38.7,-25.7,7709,2016-08-02 15:30:49:506
-3.964,-12.194,-0.603,1.074,-0.43,-0.886,2.3,38.7,-25.7,7809,2016-08-02 15:30:49:606
2.105,-12.729,4.48,-1.952,-0.346,0.39,-2.5,36.5,-30.8,7909,2016-08-02 15:30:49:706
3.002,-0.876,-0.836,-1.952,-0.346,0.39,-2.5,36.5,-30.8,8008,2016-08-02 15:30:49:805
3.002,-0.876,-0.836,2.225,1.799,-0.257,1.3,37.6,-24.5,8109,2016-08-02 15:30:49:906
7.832,-9.287,0.633,2.225,1.799,-0.257,1.3,37.6,-24.5,8209,2016-08-02 15:30:50:006
7.832,-9.287,0.633,2.23,-1.647,0.345,7.6,40.1,-17.7,8309,2016-08-02 15:30:50:106
-3.245,-19.609,4.534,2.23,-1.647,0.345,7.6,40.1,-17.7,8409,2016-08-02 15:30:50:206
-3.245,-19.609,4.534,2.23,-1.647,0.345,10.5,39.5,-15.2,8509,2016-08-02 15:30:50:306
1.702,-8.957,-3.751,1.264,-3.09,-0.612,10.5,39.5,-15.2,8608,2016-08-02 15:30:50:405
1.702,-8.957,-3.751,1.264,-3.09,-0.612,4.9,36.8,-22.7,8708,2016-08-02 15:30:50:505
-3.482,-13.415,-0.772,-1.945,-0.252,1.395,4.9,36.8,-22.7,8808,2016-08-02 15:30:50:605
1.772,-11.884,-1.483,-1.945,-0.252,1.395,-1.4,33.4,-29.5,8909,2016-08-02 15:30:50:706
1.772,-11.884,-1.483,-1.945,-0.252,1.395,-1.4,33.4,-29.5,9009,2016-08-02 15:30:50:806
2.015,-1.624,-0.211,-1.108,-0.375,1.144,-1.6,34.3,-27.8,9109,2016-08-02 15:30:50:906
2.015,-1.624,-0.211,-1.108,-0.375,1.144,-1.6,34.3,-27.8,9209,2016-08-02 15:30:51:006
7.519,-4.817,0.937,-1.092,-0.373,0.88,3.5,37.6,-21.5,9309,2016-08-02 15:30:51:106
7.519,-4.817,0.937,-1.092,-0.373,0.88,3.5,37.6,-21.5,9408,2016-08-02 15:30:51:205
-5.99,-18.246,-2.403,2.436,0.118,0.077,7.7,40.6,-17.0,9508,2016-08-02 15:30:51:305
-5.99,-18.246,-2.403,2.436,0.118,0.077,7.7,40.6,-17.0,9608,2016-08-02 15:30:51:405
-2.114,-9.154,-2.917,2.436,0.118,0.077,4.6,39.0,-21.7,9708,2016-08-02 15:30:51:505
-1.562,-13.137,-3.57,0.039,-0.953,-0.402,4.6,39.0,-21.7,9809,2016-08-02 15:30:51:606
-1.562,-13.137,-3.57,0.039,-0.953,-0.402,-2.9,36.0,-27.1,9913,2016-08-02 15:30:51:710
2.395,-14.418,-1.469,-0.755,2.312,1.11,-6.3,35.6,-28.3,10091,2016-08-02 15:30:51:888
2.395,-14.418,-1.469,-0.755,2.312,1.11,-6.3,35.6,-28.3,10109,2016-08-02 15:30:51:906
3.443,-1.405,-0.105,-0.755,2.312,1.11,-6.3,35.6,-28.3,10209,2016-08-02 15:30:52:006
3.443,-1.405,-0.105,1.761,1.768,-0.619,-2.3,38.8,-22.7,10309,2016-08-02 15:30:52:106
5.808,-4.951,-0.849,1.761,1.768,-0.619,-2.3,38.8,-22.7,10408,2016-08-02 15:30:52:205
5.808,-4.951,-0.849,1.003,-1.228,-0.091,4.2,41.8,-17.9,10508,2016-08-02 15:30:52:305
0.287,-15.974,3.02,1.003,-1.228,-0.091,4.2,41.8,-17.9,10608,2016-08-02 15:30:52:405
-0.151,-9.584,-2.972,1.236,-0.139,-0.6,4.7,41.3,-19.3,10708,2016-08-02 15:30:52:505
-0.151,-9.584,-2.972,1.236,-0.139,-0.6,4.7,41.3,-19.3,10809,2016-08-02 15:30:52:606
-2.304,-12.506,0.933,1.236,-0.139,-0.6,0.2,38.8,-24.6,10909,2016-08-02 15:30:52:706
-2.304,-12.506,0.933,-0.796,0.142,0.275,0.2,38.8,-24.6,11009,2016-08-02 15:30:52:806
7.181,-15.28,-1.437,-0.796,0.142,0.275,-4.1,36.7,-28.9,11108,2016-08-02 15:30:52:905
7.181,-15.28,-1.437,-1.301,-0.392,1.41,-4.1,36.7,-28.9,11209,2016-08-02 15:30:53:006
3.083,-1.811,0.391,-1.301,-0.392,1.41,-2.9,37.9,-25.3,11309,2016-08-02 15:30:53:106
3.083,-1.811,0.391,-1.301,-0.392,1.41,-2.9,37.9,-25.3,11409,2016-08-02 15:30:53:206
-3.937,-12.439,-7.81,-1.152,0.814,0.727,3.9,41.1,-19.3,11508,2016-08-02 15:30:53:305
4.491,-9.243,5.349,-1.152,0.814,0.727,3.9,41.1,-19.3,11609,2016-08-02 15:30:53:406
4.491,-9.243,5.349,0.369,-1.083,-2.723,8.8,41.9,-16.7,11709,2016-08-02 15:30:53:506
2.476,-8.335,1.666,0.369,-1.083,-2.723,8.8,41.9,-16.7,11808,2016-08-02 15:30:53:605
2.476,-8.335,1.666,0.465,-0.476,-0.672,5.9,39.8,-21.4,11908,2016-08-02 15:30:53:705
-1.273,-10.888,-3.156,0.465,-0.476,-0.672,5.9,39.8,-21.4,12009,2016-08-02 15:30:53:806
-1.273,-10.888,-3.156,0.465,-0.476,-0.672,-1.9,36.8,-27.1,12109,2016-08-02 15:30:53:906
6.478,-16.662,1.078,-2.643,0.629,2.488,-1.9,36.8,-27.1,12208,2016-08-02 15:30:54:005
6.478,-16.662,1.078,-2.643,0.629,2.488,-5.3,36.8,-28.9,12309,2016-08-02 15:30:54:106
0.637,-4.761,1.114,-0.448,2.262,0.772,-5.3,36.8,-28.9,12409,2016-08-02 15:30:54:206
-0.321,-19.609,-17.578,-0.448,2.262,0.772,-2.8,40.1,-21.9,12509,2016-08-02 15:30:54:306
-0.321,-19.609,-17.578,-0.448,2.262,0.772,-2.8,40.1,-21.9,12608,2016-08-02 15:30:54:405
1.241,-3.2,6.5,-0.73,0.026,-1.399,3.2,43.3,-16.0,12709,2016-08-02 15:30:54:506
1.241,-3.2,6.5,-0.73,0.026,-1.399,3.2,43.3,-16.0,12808,2016-08-02 15:30:54:605
2.549,-6.595,2.529,0.87,-0.79,0.131,3.7,42.1,-16.6,12908,2016-08-02 15:30:54:705
2.549,-6.595,2.529,0.87,-0.79,0.131,3.7,42.1,-16.6,13009,2016-08-02 15:30:54:806
-1.04,-11.32,-0.854,-0.177,-0.512,-0.451,0.4,39.1,-23.3,13109,2016-08-02 15:30:54:906
-1.04,-11.32,-0.854,-0.177,-0.512,-0.451,0.4,39.1,-23.3,13209,2016-08-02 15:30:55:006
1.261,-12.969,-0.376,-0.177,-0.512,-0.451,-3.7,36.8,-27.4,13309,2016-08-02 15:30:55:106
-0.813,-6.977,1.593,-0.618,0.87,1.188,-3.7,36.8,-27.4,13409,2016-08-02 15:30:55:206
-0.813,-6.977,1.593,-0.618,0.87,1.188,-3.4,38.0,-24.2,13509,2016-08-02 15:30:55:306
-0.344,-10.21,-4.762,2.061,0.619,-0.578,-3.4,38.0,-24.2,13609,2016-08-02 15:30:55:406
-0.344,-10.21,-4.762,2.061,0.619,-0.578,0.8,40.9,-18.0,13709,2016-08-02 15:30:55:506
5.215,-14.076,-4.989,2.061,0.619,-0.578,0.8,40.9,-18.0,13808,2016-08-02 15:30:55:605
5.215,-14.076,-4.989,1.043,-2.666,-0.582,4.7,42.4,-14.9,13909,2016-08-02 15:30:55:706
-1.923,-7.748,-6.904,1.043,-2.666,-0.582,4.7,42.4,-14.9,14009,2016-08-02 15:30:55:806
-1.923,-7.748,-6.904,1.001,-0.936,-0.74,2.6,41.0,-18.8,14108,2016-08-02 15:30:55:905
0.114,-9.154,2.141,1.001,-0.936,-0.74,2.6,41.0,-18.8,14209,2016-08-02 15:30:56:006
-4.084,-12.972,-3.97,-1.409,0.173,0.668,-3.2,38.0,-24.4,14309,2016-08-02 15:30:56:106
-4.084,-12.972,-3.97,-1.409,0.173,0.668,-3.2,38.0,-24.4,14409,2016-08-02 15:30:56:206
-3.175,-10.517,0.198,-1.409,0.173,0.668,-5.3,36.8,-26.8,14509,2016-08-02 15:30:56:306
-3.175,-10.517,0.198,-0.628,0.985,1.29,-5.3,36.8,-26.8,14609,2016-08-02 15:30:56:406
1.143,-3.463,-0.439,-0.628,0.985,1.29,-1.8,39.0,-21.5,14709,2016-08-02 15:30:56:506
1.143,-3.463,-0.439,-1.018,1.897,1.4,-1.8,39.0,-21.5,14809,2016-08-02 15:30:56:606
6.734,-17.269,2.078,-1.018,1.897,1.4,4.2,41.6,-16.9,14908,2016-08-02 15:30:56:705
6.734,-17.269,2.078,-1.018,1.897,1.4,4.2,41.6,-16.9,15009,2016-08-02 15:30:56:806
-7.435,-11.082,-2.427,1.257,0.268,-1.645,5.2,40.9,-17.8,15109,2016-08-02 15:30:56:906
-0.453,-9.234,0.18,1.257,0.268,-1.645,5.2,40.9,-17.8,15209,2016-08-02 15:30:57:006
-0.453,-9.234,0.18,0.736,-0.736,-0.695,0.5,38.6,-23.6,15309,2016-08-02 15:30:57:106
-3.63,-14.972,-3.75,0.736,-0.736,-0.695,0.5,38.6,-23.6,15409,2016-08-02 15:30:57:206
-3.63,-14.972,-3.75,-2.206,0.226,1.304,-6.4,35.8,-28.3,15508,2016-08-02 15:30:57:305
0.321,-11.441,0.278,-2.206,0.226,1.304,-6.4,35.8,-28.3,15609,2016-08-02 15:30:57:406
0.321,-11.441,0.278,-2.206,0.226,1.304,-6.4,35.8,-28.3,15709,2016-08-02 15:30:57:506
2.25,-0.918,0.062,0.161,2.415,0.287,-6.9,37.2,-25.7,15809,2016-08-02 15:30:57:606
2.25,-0.918,0.062,0.161,2.415,0.287,-6.9,37.2,-25.7,15908,2016-08-02 15:30:57:705
8.189,-8.311,1.072,-0.757,0.204,-1.869,-1.7,40.6,-19.6,16009,2016-08-02 15:30:57:806
-4.645,-15.619,2.311,-0.757,0.204,-1.869,-1.7,40.6,-19.6,16109,2016-08-02 15:30:57:906
-4.645,-15.619,2.311,-0.757,0.204,-1.869,2.7,42.6,-16.6,16209,2016-08-02 15:30:58:006
-1.819,-9.463,-2.326,1.112,-1.613,-0.017,2.7,42.6,-16.6,16309,2016-08-02 15:30:58:106
-1.819,-9.463,-2.326,1.112,-1.613,-0.017,0.7,40.0,-20.4,16409,2016-08-02 15:30:58:206
-3.302,-12.042,-1.4,-0.328,-0.159,-0.235,0.7,40.0,-20.4,16509,2016-08-02 15:30:58:306
-3.302,-12.042,-1.4,-0.328,-0.159,-0.235,-5.7,36.9,-26.0,16609,2016-08-02 15:30:58:406
5.479,-13.025,-3.57,-0.328,-0.159,-0.235,-5.7,36.9,-26.0,16710,2016-08-02 15:30:58:507
5.479,-13.025,-3.57,-1.195,-2.908,0.793,-9.6,35.9,-28.0,16809,2016-08-02 15:30:58:606
3.748,-0.886,0.113,-1.195,-2.908,0.793,-9.6,35.9,-28.0,16909,2016-08-02 15:30:58:706
4.957,-2.89,-1.363,1.246,0.122,-1.017,-6.1,39.2,-21.9,17009,2016-08-02 15:30:58:806
4.957,-2.89,-1.363,1.246,0.122,-1.017,-6.1,39.2,-21.9,17109,2016-08-02 15:30:58:906
3.718,-7.375,2.446,1.378,-2.894,-1.421,0.9,43.0,-16.7,17209,2016-08-02 15:30:59:006
3.718,-7.375,2.446,1.378,-2.894,-1.421,0.9,43.0,-16.7,17309,2016-08-02 15:30:59:106
2.395,-9.139,-0.129,1.378,-2.894,-1.421,2.7,43.1,-17.3,17409,2016-08-02 15:30:59:206
2.395,-9.139,-0.129,0.694,-1.352,-0.822,2.7,43.1,-17.3,17509,2016-08-02 15:30:59:306
0.905,-11.291,-2.452,0.694,-1.352,-0.822,-3.0,39.8,-23.5,17609,2016-08-02 15:30:59:406
0.905,-11.291,-2.452,-3.376,0.014,1.516,-3.0,39.8,-23.5,17709,2016-08-02 15:30:59:506
4.271,-14.677,1.056,-3.376,0.014,1.516,-11.2,36.4,-28.5,17809,2016-08-02 15:30:59:606
4.271,-14.677,1.056,-3.376,0.014,1.516,-11.2,36.4,-28.5,17909,2016-08-02 15:30:59:706
2.365,-3.012,0.316,-0.121,1.951,1.026,-12.1,37.4,-25.0,18009,2016-08-02 15:30:59:806
-3.084,-8.971,-5.455,-0.121,1.951,1.026,-12.1,37.4,-25.0,18108,2016-08-02 15:30:59:905
-3.084,-8.971,-5.455,-0.296,1.498,-0.03,-6.5,41.2,-18.6,18209,2016-08-02 15:31:00:006
-0.69,-10.205,5.219,-0.296,1.498,-0.03,-6.5,41.2,-18.6,18309,2016-08-02 15:31:00:106
-0.69,-10.205,5.219,1.919,0.633,0.608,0.3,43.8,-13.5,18408,2016-08-02 15:31:00:205
2.549,-8.511,0.287,1.919,0.633,0.608,0.3,43.8,-13.5,18509,2016-08-02 15:31:00:306
2.549,-8.511,0.287,1.919,0.633,0.608,0.7,42.1,-17.5,18609,2016-08-02 15:31:00:406
0.199,-12.252,-4.858,1.057,-0.814,-0.406,0.7,42.1,-17.5,18709,2016-08-02 15:31:00:506
0.199,-12.252,-4.858,1.057,-0.814,-0.406,-3.2,38.5,-22.9,18809,2016-08-02 15:31:00:606
6.412,-13.418,2.611,-1.238,0.388,0.617,-3.2,38.5,-22.9,18909,2016-08-02 15:31:00:706
1.803,-5.513,1.286,-1.238,0.388,0.617,-5.9,36.2,-26.5,19009,2016-08-02 15:31:00:806
1.803,-5.513,1.286,-1.238,0.388,0.617,-5.9,36.2,-26.5,19109,2016-08-02 15:31:00:906
-5.133,-19.609,-16.705,1.509,1.86,-0.289,-3.2,38.0,-21.1,19209,2016-08-02 15:31:01:006
-5.133,-19.609,-16.705,1.509,1.86,-0.289,-3.2,38.0,-21.1,19309,2016-08-02 15:31:01:106
2.346,-3.737,3.89,-0.258,-0.912,-0.276,2.5,40.5,-16.2,19408,2016-08-02 15:31:01:205
2.346,-3.737,3.89,-0.258,-0.912,-0.276,2.5,40.5,-16.2,19509,2016-08-02 15:31:01:306
3.333,-7.802,0.999,1.011,0.256,0.016,5.5,41.2,-14.7,19609,2016-08-02 15:31:01:406
3.333,-7.802,0.999,1.011,0.256,0.016,5.5,41.2,-14.7,19709,2016-08-02 15:31:01:506
-0.602,-9.771,0.638,1.011,0.256,0.016,2.8,39.0,-19.8,19809,2016-08-02 15:31:01:606
2.358,-12.057,-4.197,-0.358,-0.543,-0.149,2.8,39.0,-19.8,19909,2016-08-02 15:31:01:706
2.358,-12.057,-4.197,-0.358,-0.543,-0.149,-1.2,36.6,-24.8,20009,2016-08-02 15:31:01:806
-1.554,-8.733,1.161,-0.937,-3.328,1.372,-1.2,36.6,-24.8,20109,2016-08-02 15:31:01:906
-1.554,-8.733,1.161,-0.937,-3.328,1.372,-1.8,37.0,-24.4,20209,2016-08-02 15:31:02:006
-0.968,-7.287,-2.109,-0.937,-3.328,1.372,-1.8,37.0,-24.4,20309,2016-08-02 15:31:02:106
-0.968,-7.287,-2.109,0.853,0.018,-0.512,1.3,39.8,-18.8,20409,2016-08-02 15:31:02:206
6.111,-9.193,1.59,0.853,0.018,-0.512,1.3,39.8,-18.8,20509,2016-08-02 15:31:02:306
6.111,-9.193,1.59,1.458,-1.623,-0.794,4.9,42.0,-14.5,20609,2016-08-02 15:31:02:406
-3.807,-15.245,-0.82,1.458,-1.623,-0.794,4.9,42.0,-14.5,20709,2016-08-02 15:31:02:506
-0.881,-10.411,-3.227,0.964,-1.877,-0.777,3.6,41.5,-17.5,20809,2016-08-02 15:31:02:606
-0.881,-10.411,-3.227,0.964,-1.877,-0.777,3.6,41.5,-17.5,20909,2016-08-02 15:31:02:706
-2.396,-13.425,0.498,0.964,-1.877,-0.777,-1.7,39.1,-23.0,21009,2016-08-02 15:31:02:806
-2.396,-13.425,0.498,-1.946,0.393,1.119,-1.7,39.1,-23.0,21109,2016-08-02 15:31:02:906
3.575,-10.259,2.023,-1.946,0.393,1.119,-7.7,36.5,-27.8,21209,2016-08-02 15:31:03:006
3.575,-10.259,2.023,-0.713,1.114,1.441,-7.7,36.5,-27.8,21309,2016-08-02 15:31:03:106
4.331,-2.206,-0.33,-0.713,1.114,1.441,-8.5,38.3,-24.1,21409,2016-08-02 15:31:03:206
4.331,-2.206,-0.33,-0.713,1.114,1.441,-8.5,38.3,-24.1,21509,2016-08-02 15:31:03:306
-5.932,-15.69,-6.048,-0.673,0.914,0.311,-3.5,41.8,-18.5,21609,2016-08-02 15:31:03:406
2.154,-18.851,3.762,-0.673,0.914,0.311,-3.5,41.8,-18.5,21708,2016-08-02 15:31:03:505
2.154,-18.851,3.762,0.414,2.216,-0.492,1.7,43.7,-15.5,21809,2016-08-02 15:31:03:606
3.275,-7.259,-4.927,0.414,2.216,-0.492,1.7,43.7,-15.5,21909,2016-08-02 15:31:03:706
3.275,-7.259,-4.927,0.767,-1.052,-0.695,1.9,43.5,-18.5,22009,2016-08-02 15:31:03:806
-0.245,-10.198,0.661,0.767,-1.052,-0.695,1.9,43.5,-18.5,22109,2016-08-02 15:31:03:906
-0.245,-10.198,0.661,0.767,-1.052,-0.695,-2.5,41.5,-22.4,22209,2016-08-02 15:31:04:006
3.413,-15.569,2.866,-3.239,0.961,1.765,-2.5,41.5,-22.4,22309,2016-08-02 15:31:04:106
3.413,-15.569,2.866,-3.239,0.961,1.765,-8.1,39.4,-26.5,22409,2016-08-02 15:31:04:206
1.85,-6.524,0.955,-0.546,0.344,0.711,-8.1,39.4,-26.5,22509,2016-08-02 15:31:04:306
2.913,-9.76,-2.318,-0.546,0.344,0.711,-7.6,40.5,-22.9,22609,2016-08-02 15:31:04:406
2.913,-9.76,-2.318,-0.546,0.344,0.711,-7.6,40.5,-22.9,22709,2016-08-02 15:31:04:506
2.643,-16.043,-0.595,-0.304,0.335,0.26,-2.4,43.4,-17.2,22809,2016-08-02 15:31:04:606
2.643,-16.043,-0.595,-0.304,0.335,0.26,-2.4,43.4,-17.2,22908,2016-08-02 15:31:04:705
1.659,-8.218,-4.08,2.245,0.199,0.385,1.3,43.6,-14.6,23011,2016-08-02 15:31:04:808
1.659,-8.218,-4.08,2.245,0.199,0.385,1.3,43.6,-14.6,23109,2016-08-02 15:31:04:906
-0.268,-9.951,1.093,0.696,-0.871,-0.364,-1.1,41.3,-19.3,23209,2016-08-02 15:31:05:006
-0.268,-9.951,1.093,0.696,-0.871,-0.364,-1.1,41.3,-19.3,23309,2016-08-02 15:31:05:106
0.716,-14.97,-1.447,0.696,-0.871,-0.364,-6.4,38.1,-24.5,23409,2016-08-02 15:31:05:206
1.34,-8.405,2.133,-1.17,0.629,0.767,-6.4,38.1,-24.5,23509,2016-08-02 15:31:05:306
1.34,-8.405,2.133,-1.17,0.629,0.767,-9.1,37.9,-25.0,23609,2016-08-02 15:31:05:406
2.025,-5.034,2.061,2.268,1.779,-0.494,-9.1,37.9,-25.0,23709,2016-08-02 15:31:05:506
2.025,-5.034,2.061,2.268,1.779,-0.494,-5.6,40.9,-19.9,23809,2016-08-02 15:31:05:606
12.899,-19.609,-10.103,2.268,1.779,-0.494,-5.6,40.9,-19.9,23909,2016-08-02 15:31:05:706
12.899,-19.609,-10.103,0.481,-1.68,-0.358,-0.4,43.3,-15.5,24009,2016-08-02 15:31:05:806
1.597,-7.568,-6.826,0.481,-1.68,-0.358,-0.4,43.3,-15.5,24109,2016-08-02 15:31:05:906
1.597,-7.568,-6.826,1.14,-1.574,-0.877,1.0,43.2,-16.6,24210,2016-08-02 15:31:06:007
-1.032,-10.062,0.115,1.14,-1.574,-0.877,1.0,43.2,-16.6,24311,2016-08-02 15:31:06:108
1.646,-15.073,-6.537,-2.428,1.081,1.6,-3.4,40.4,-21.4,24411,2016-08-02 15:31:06:208
1.646,-15.073,-6.537,-2.428,1.081,1.6,-3.4,40.4,-21.4,24510,2016-08-02 15:31:06:307
-0.909,-9.452,2.24,-2.428,1.081,1.6,-8.2,38.9,-24.7,24609,2016-08-02 15:31:06:406
-0.909,-9.452,2.24,-0.927,0.868,1.035,-8.2,38.9,-24.7,24711,2016-08-02 15:31:06:508
0.97,-6.175,-0.983,-0.927,0.868,1.035,-7.9,40.7,-21.5,24810,2016-08-02 15:31:06:607
0.97,-6.175,-0.983,-0.764,-0.602,0.591,-7.9,40.7,-21.5,24911,2016-08-02 15:31:06:708
4.562,-4.626,3.44,-0.764,-0.602,0.591,-2.9,43.9,-16.5,25011,2016-08-02 15:31:06:808
4.562,-4.626,3.44,-0.764,-0.602,0.591,-2.9,43.9,-16.5,25111,2016-08-02 15:31:06:908
6.497,-7.102,-4.29,1.824,-1.8,0.312,-1.0,44.1,-16.4,25210,2016-08-02 15:31:07:007
0.32,-9.258,-0.277,1.824,-1.8,0.312,-1.0,44.1,-16.4,25310,2016-08-02 15:31:07:107
0.32,-9.258,-0.277,-0.103,-0.953,-0.336,-4.9,41.0,-21.6,25410,2016-08-02 15:31:07:207
1.916,-14.946,0.004,-0.103,-0.953,-0.336,-4.9,41.0,-21.6,25509,2016-08-02 15:31:07:306
1.916,-14.946,0.004,-0.983,-0.352,0.761,-10.6,38.2,-25.6,25610,2016-08-02 15:31:07:407
-0.243,-8.8,1.2,-0.983,-0.352,0.761,-10.6,38.2,-25.6,25710,2016-08-02 15:31:07:507
-0.243,-8.8,1.2,-0.983,-0.352,0.761,-11.2,39.5,-22.8,25811,2016-08-02 15:31:07:608
3.032,-6.778,0.838,2.325,1.949,-0.465,-11.2,39.5,-22.8,25910,2016-08-02 15:31:07:707
3.032,-6.778,0.838,2.325,1.949,-0.465,-4.8,42.8,-18.0,26009,2016-08-02 15:31:07:806
6.193,-8.118,3.215,1.748,-2.077,-0.542,-4.8,42.8,-18.0,26111,2016-08-02 15:31:07:908
2.96,-6.895,-4.085,1.748,-2.077,-0.542,0.4,44.6,-15.7,26210,2016-08-02 15:31:08:007
2.96,-6.895,-4.085,1.748,-2.077,-0.542,0.4,44.6,-15.7,26310,2016-08-02 15:31:08:107
0.19,-9.401,0.845,1.25,-2.765,-1.06,-1.6,42.4,-20.5,26411,2016-08-02 15:31:08:208
0.19,-9.401,0.845,1.25,-2.765,-1.06,-1.6,42.4,-20.5,26511,2016-08-02 15:31:08:308
-1.31,-11.608,-4.692,-1.572,-0.363,0.971,-9.0,38.3,-25.6,26610,2016-08-02 15:31:08:407
-1.31,-11.608,-4.692,-1.572,-0.363,0.971,-9.0,38.3,-25.6,26710,2016-08-02 15:31:08:507
-4.314,-10.223,0.544,-1.752,1.28,1.364,-12.2,37.9,-27.1,26809,2016-08-02 15:31:08:606
-4.314,-10.223,0.544,-1.752,1.28,1.364,-12.2,37.9,-27.1,26909,2016-08-02 15:31:08:706
1.031,-2.923,-1.416,-1.752,1.28,1.364,-7.9,41.8,-18.6,27009,2016-08-02 15:31:08:806
11.096,-18.457,1.994,-1.312,1.162,-0.253,-7.9,41.8,-18.6,27109,2016-08-02 15:31:08:906
11.096,-18.457,1.994,-1.312,1.162,-0.253,-1.7,45.4,-13.1,27208,2016-08-02 15:31:09:005
-2.324,-11.333,-1.311,1.085,2.854,-0.239,-1.7,45.4,-13.1,27309,2016-08-02 15:31:09:106
-2.324,-11.333,-1.311,1.085,2.854,-0.239,-0.9,44.5,-14.6,27409,2016-08-02 15:31:09:206
0.011,-9.149,0.652,1.085,2.854,-0.239,-0.9,44.5,-14.6,27509,2016-08-02 15:31:09:306
0.011,-9.149,0.652,1.188,-0.153,-0.668,-5.0,41.1,-21.7,27608,2016-08-02 15:31:09:405
-4.491,-14.521,-4.299,1.188,-0.153,-0.668,-5.0,41.1,-21.7,27709,2016-08-02 15:31:09:506
-4.491,-14.521,-4.299,-2.081,0.21,0.759,-10.0,38.3,-25.7,27809,2016-08-02 15:31:09:606
-3.204,-10.527,1.013,-2.081,0.21,0.759,-10.0,38.3,-25.7,27908,2016-08-02 15:31:09:705
5.022,-3.087,-0.132,1.272,3.986,0.491,-9.6,39.8,-21.5,28008,2016-08-02 15:31:09:805
5.022,-3.087,-0.132,1.272,3.986,0.491,-9.6,39.8,-21.5,28109,2016-08-02 15:31:09:906
4.468,-5.044,1.014,1.272,3.986,0.491,-4.0,43.9,-16.6,28209,2016-08-02 15:31:10:006
4.468,-5.044,1.014,0.213,0.997,-1.984,-4.0,43.9,-16.6,28309,2016-08-02 15:31:10:106
-2.193,-16.84,0.9,0.213,0.997,-1.984,1.0,45.5,-14.5,28409,2016-08-02 15:31:10:206
-2.193,-16.84,0.9,0.884,0.042,-0.105,1.0,45.5,-14.5,28510,2016-08-02 15:31:10:307
0.359,-9.272,-2.753,0.884,0.042,-0.105,-1.7,42.7,-19.9,28610,2016-08-02 15:31:10:407
0.359,-9.272,-2.753,0.884,0.042,-0.105,-1.7,42.7,-19.9,28709,2016-08-02 15:31:10:506
-0.284,-11.659,-7.599,-1.115,-1.012,0.092,-1.7,42.7,-19.9,28809,2016-08-02 15:31:10:606
1.602,-9.06,-0.161,-1.115,-1.012,0.092,-8.2,38.9,-24.8,28908,2016-08-02 15:31:10:705
1.602,-9.06,-0.161,-1.259,0.078,0.772,-8.2,38.9,-24.8,29009,2016-08-02 15:31:10:806
2.849,-3.335,0.051,-1.259,0.078,0.772,-10.7,38.7,-24.5,29109,2016-08-02 15:31:10:906
2.849,-3.335,0.051,-1.595,1.186,1.004,-10.7,38.7,-24.5,29209,2016-08-02 15:31:11:006
12.532,-12.877,3.006,-1.595,1.186,1.004,-6.8,42.5,-18.2,29309,2016-08-02 15:31:11:106
12.532,-12.877,3.006,-1.595,1.186,1.004,-6.8,42.5,-18.2,29409,2016-08-02 15:31:11:206
3.111,-11.821,-1.121,1.76,-0.053,0.046,-2.2,45.4,-13.8,29511,2016-08-02 15:31:11:308
3.111,-11.821,-1.121,1.76,-0.053,0.046,-2.2,45.4,-13.8,29609,2016-08-02 15:31:11:406
-0.106,-9.656,-1.094,0.788,-0.037,-0.499,-2.6,44.2,-17.3,29711,2016-08-02 15:31:11:508
-0.486,-14.39,-5.198,0.788,-0.037,-0.499,-2.6,44.2,-17.3,29811,2016-08-02 15:31:11:608
-0.486,-14.39,-5.198,0.788,-0.037,-0.499,-8.3,40.5,-23.4,29909,2016-08-02 15:31:11:706
-1.103,-8.127,1.612,-1.316,0.485,0.694,-8.3,40.5,-23.4,30009,2016-08-02 15:31:11:806
-1.103,-8.127,1.612,-1.316,0.485,0.694,-11.1,39.0,-25.6,30111,2016-08-02 15:31:11:908
3.13,-3.838,0.251,1.593,2.79,-0.154,-11.1,39.0,-25.6,30209,2016-08-02 15:31:12:006
3.13,-3.838,0.251,1.593,2.79,-0.154,-8.0,41.8,-19.5,30309,2016-08-02 15:31:12:106
13.598,-18.492,1.706,0.455,-1.99,-0.694,-8.0,41.8,-19.5,30409,2016-08-02 15:31:12:206
13.598,-18.492,1.706,0.455,-1.99,-0.694,-1.9,44.9,-13.6,30509,2016-08-02 15:31:12:306
1.957,-8.589,-3.355,0.455,-1.99,-0.694,-1.9,44.9,-13.6,30611,2016-08-02 15:31:12:408
0.421,-10.763,0.047,1.211,-1.916,-0.73,-0.6,44.3,-15.1,30709,2016-08-02 15:31:12:506
0.421,-10.763,0.047,1.211,-1.916,-0.73,-0.6,44.3,-15.1,30810,2016-08-02 15:31:12:607
1.822,-13.965,-1.259,-2.286,1.06,1.395,-5.5,40.5,-22.0,30909,2016-08-02 15:31:12:706
1.822,-13.965,-1.259,-2.286,1.06,1.395,-5.5,40.5,-22.0,31009,2016-08-02 15:31:12:806
-2.757,-11.765,1.08,-2.286,1.06,1.395,-9.3,38.0,-26.5,31111,2016-08-02 15:31:12:908
-2.757,-11.765,1.08,-1.235,1.418,1.365,-9.3,38.0,-26.5,31209,2016-08-02 15:31:13:006
2.194,-2.274,-0.763,-1.235,1.418,1.365,-7.9,40.4,-21.0,31309,2016-08-02 15:31:13:106
2.194,-2.274,-0.763,-1.493,1.031,1.05,-7.9,40.4,-21.0,31410,2016-08-02 15:31:13:207
18.158,-19.609,-5.485,-1.493,1.031,1.05,-3.0,44.2,-14.8,31510,2016-08-02 15:31:13:307
-0.616,-8.483,-2.234,2.657,-0.882,-0.015,-3.0,44.2,-14.8,31609,2016-08-02 15:31:13:406
-0.616,-8.483,-2.234,2.657,-0.882,-0.015,-2.2,44.8,-13.2,31709,2016-08-02 15:31:13:506
-0.869,-10.168,0.045,2.657,-0.882,-0.015,-2.2,44.8,-13.2,31811,2016-08-02 15:31:13:608
-0.869,-10.168,0.045,0.798,-0.726,-0.499,-6.9,40.6,-20.5,31909,2016-08-02 15:31:13:706
3.865,-13.204,-4.812,0.798,-0.726,-0.499,-6.9,40.6,-20.5,32009,2016-08-02 15:31:13:806
3.865,-13.204,-4.812,-0.553,-0.401,0.797,-12.7,36.4,-25.9,32111,2016-08-02 15:31:13:908
-0.944,-9.321,2.107,-0.553,-0.401,0.797,-12.7,36.4,-25.9,32209,2016-08-02 15:31:14:006
-0.944,-9.321,2.107,-0.553,-0.401,0.797,-12.4,37.8,-23.0,32309,2016-08-02 15:31:14:106
1.568,-4.55,0.595,2.183,1.928,0.045,-12.4,37.8,-23.0,32409,2016-08-02 15:31:14:206
6.988,-16.809,-2.559,2.183,1.928,0.045,-6.7,42.5,-17.6,32509,2016-08-02 15:31:14:306
6.988,-16.809,-2.559,1.224,-1.514,-0.268,-6.7,42.5,-17.6,32609,2016-08-02 15:31:14:406
5.458,-6.457,-6.127,1.224,-1.514,-0.268,-2.2,45.5,-13.5,32709,2016-08-02 15:31:14:506
5.458,-6.457,-6.127,1.505,-2.462,-0.967,-2.2,45.5,-13.5,32809,2016-08-02 15:31:14:606
0.07,-11.141,-3.344,1.505,-2.462,-0.967,-3.2,42.5,-19.4,32909,2016-08-02 15:31:14:706
0.07,-11.141,-3.344,1.505,-2.462,-0.967,-3.2,42.5,-19.4,33009,2016-08-02 15:31:14:806
8.434,-16.342,1.307,-2.979,-0.183,1.942,-8.3,38.6,-24.8,33109,2016-08-02 15:31:14:906
8.434,-16.342,1.307,-2.979,-0.183,1.942,-8.3,38.6,-24.8,33211,2016-08-02 15:31:15:008
2.317,-5.95,2.847,-1.593,1.097,1.045,-9.8,38.5,-25.5,33310,2016-08-02 15:31:15:107
3.183,-12.638,-11.313,-1.593,1.097,1.045,-9.8,38.5,-25.5,33409,2016-08-02 15:31:15:206
3.183,-12.638,-11.313,-1.593,1.097,1.045,-5.2,42.0,-18.0,33510,2016-08-02 15:31:15:307
-4.604,-4.631,11.302,-0.217,1.138,-1.248,-5.2,42.0,-18.0,33611,2016-08-02 15:31:15:408
-4.604,-4.631,11.302,-0.217,1.138,-1.248,-0.7,45.2,-11.9,33709,2016-08-02 15:31:15:506
5.764,-6.366,-1.371,1.658,-1.699,0.468,-0.7,45.2,-11.9,33809,2016-08-02 15:31:15:606
5.764,-6.366,-1.371,1.658,-1.699,0.468,-1.7,43.6,-15.7,33911,2016-08-02 15:31:15:708
-1.735,-11.662,-1.244,-0.706,-1.135,-0.304,-1.7,43.6,-15.7,34008,2016-08-02 15:31:15:805
-1.735,-11.662,-1.244,-0.706,-1.135,-0.304,-8.5,38.9,-22.7,34111,2016-08-02 15:31:15:908
9.615,-15.847,2.776,-0.706,-1.135,-0.304,-8.5,38.9,-22.7,34211,2016-08-02 15:31:16:008
2.571,-4.498,3.346,-0.49,-1.955,1.698,-11.5,37.1,-25.4,34309,2016-08-02 15:31:16:106
2.571,-4.498,3.346,-0.49,-1.955,1.698,-11.5,37.1,-25.4,34409,2016-08-02 15:31:16:206
-1.677,-19.609,-19.609,1.85,0.511,-1.548,-7.1,40.0,-19.2,34509,2016-08-02 15:31:16:306
-1.677,-19.609,-19.609,1.85,0.511,-1.548,-7.1,40.0,-19.2,34609,2016-08-02 15:31:16:406
0.95,0.897,8.532,1.85,0.511,-1.548,-0.4,44.2,-13.0,34709,2016-08-02 15:31:16:506
0.95,0.897,8.532,2.01,1.015,-1.432,-0.4,44.2,-13.0,34811,2016-08-02 15:31:16:608
2.724,-4.196,1.681,2.01,1.015,-1.432,-0.4,44.2,-13.0,34910,2016-08-02 15:31:16:707
2.724,-4.196,1.681,1.101,-1.319,-1.152,0.3,44.3,-13.9,35011,2016-08-02 15:31:16:808
-2.571,-12.413,1.452,1.101,-1.319,-1.152,0.3,44.3,-13.9,35110,2016-08-02 15:31:16:907
10.819,-15.225,-0.421,-2.25,-0.237,2.417,-5.6,40.6,-20.4,35209,2016-08-02 15:31:17:006
10.819,-15.225,-0.421,-2.25,-0.237,2.417,-5.6,40.6,-20.4,35311,2016-08-02 15:31:17:108
4.056,-1.613,2.356,-2.25,-0.237,2.417,-10.4,38.0,-25.4,35409,2016-08-02 15:31:17:206
4.056,-1.613,2.356,-0.135,3.325,0.419,-10.4,38.0,-25.4,35509,2016-08-02 15:31:17:306
-0.616,-19.609,-10.787,-0.135,3.325,0.419,-7.4,40.7,-19.2,35609,2016-08-02 15:31:17:406
-0.616,-19.609,-10.787,0.696,1.235,-2.061,-7.4,40.7,-19.2,35710,2016-08-02 15:31:17:507
-1.362,-7.204,10.561,0.696,1.235,-2.061,-1.1,45.7,-11.9,35809,2016-08-02 15:31:17:606
-1.362,-7.204,10.561,0.696,1.235,-2.061,-1.1,45.7,-11.9,35909,2016-08-02 15:31:17:706
2.27,-6.052,1.817,0.991,-1.464,-0.03,1.1,47.6,-10.3,36009,2016-08-02 15:31:17:806
0.141,-10.54,2.005,0.991,-1.464,-0.03,1.1,47.6,-10.3,36110,2016-08-02 15:31:17:907
0.141,-10.54,2.005,-0.356,-1.732,-0.509,-3.5,44.5,-18.5,36211,2016-08-02 15:31:18:008
9.751,-15.565,6.167,-0.356,-1.732,-0.509,-3.5,44.5,-18.5,36311,2016-08-02 15:31:18:108
9.751,-15.565,6.167,-0.774,-0.411,0.75,-9.6,40.9,-24.8,36409,2016-08-02 15:31:18:206
1.411,-4.837,1.697,-0.774,-0.411,0.75,-9.6,40.9,-24.8,36509,2016-08-02 15:31:18:306
1.411,-4.837,1.697,-0.774,-0.411,0.75,-10.3,41.1,-22.4,36609,2016-08-02 15:31:18:406
-3.587,-19.609,-19.466,1.168,1.084,-1.554,-10.3,41.1,-22.4,36709,2016-08-02 15:31:18:506
-3.587,-19.609,-19.466,1.168,1.084,-1.554,-6.4,44.1,-16.1,36809,2016-08-02 15:31:18:606
-0.681,-3.474,8.602,2.021,0.524,-0.88,-6.4,44.1,-16.1,36910,2016-08-02 15:31:18:707
2.122,-6.182,4.985,2.021,0.524,-0.88,-3.4,45.4,-12.7,37011,2016-08-02 15:31:18:808
2.122,-6.182,4.985,2.021,0.524,-0.88,-3.4,45.4,-12.7,37111,2016-08-02 15:31:18:908
-0.442,-12.436,-0.172,1.33,-0.363,-0.868,-6.8,42.2,-19.1,37209,2016-08-02 15:31:19:006
-0.442,-12.436,-0.172,1.33,-0.363,-0.868,-6.8,42.2,-19.1,37309,2016-08-02 15:31:19:106
8.997,-17.632,0.708,-1.858,-1.215,2.251,-13.3,36.7,-25.3,37410,2016-08-02 15:31:19:207
8.997,-17.632,0.708,-1.858,-1.215,2.251,-13.3,36.7,-25.3,37511,2016-08-02 15:31:19:308
3.262,-0.275,0.893,0.525,4.176,0.334,-15.0,36.7,-25.1,37610,2016-08-02 15:31:19:407
3.262,-0.275,0.893,0.525,4.176,0.334,-15.0,36.7,-25.1,37711,2016-08-02 15:31:19:508
-2.25,-8.839,-4.548,0.525,4.176,0.334,-9.9,41.2,-19.3,37809,2016-08-02 15:31:19:606
-2.25,-8.839,-4.548,-2.027,-0.834,-0.287,-9.9,41.2,-19.3,37910,2016-08-02 15:31:19:707
4.338,-8.588,5.162,-2.027,-0.834,-0.287,-3.7,45.8,-13.0,38009,2016-08-02 15:31:19:806
2.541,-5.742,2.972,1.234,-2.266,-0.758,-3.7,45.8,-13.0,38111,2016-08-02 15:31:19:908
2.541,-5.742,2.972,1.234,-2.266,-0.758,-5.1,43.4,-16.8,38211,2016-08-02 15:31:20:008
-1.444,-12.041,-3.768,1.234,-2.266,-0.758,-5.1,43.4,-16.8,38309,2016-08-02 15:31:20:106
-1.444,-12.041,-3.768,-2.273,0.602,0.766,-11.2,38.2,-22.5,38409,2016-08-02 15:31:20:206
7.843,-14.22,-4.439,-2.273,0.602,0.766,-11.2,38.2,-22.5,38511,2016-08-02 15:31:20:308
7.843,-14.22,-4.439,-1.469,1.104,1.143,-14.7,36.4,-23.9,38609,2016-08-02 15:31:20:406
3.939,1.106,1.503,-1.469,1.104,1.143,-14.7,36.4,-23.9,38709,2016-08-02 15:31:20:506
3.939,1.106,1.503,-1.469,1.104,1.143,-11.2,40.0,-18.2,38810,2016-08-02 15:31:20:607
3.304,3.069,-2.571,-0.883,-1.783,0.891,-11.2,40.0,-18.2,38909,2016-08-02 15:31:20:706
1.774,-19.609,0.367,-0.883,-1.783,0.891,-5.6,45.1,-12.0,39009,2016-08-02 15:31:20:806
1.774,-19.609,0.367,2.63,-0.98,0.812,-5.6,45.1,-12.0,39113,2016-08-02 15:31:20:910
1.301,-8.886,0.883,2.63,-0.98,0.812,-5.6,44.0,-15.3,39211,2016-08-02 15:31:21:008
1.301,-8.886,0.883,-0.02,-0.797,-0.846,-5.6,44.0,-15.3,39311,2016-08-02 15:31:21:108
-3.03,-14.736,-1.729,-0.02,-0.797,-0.846,-10.9,39.1,-22.0,39413,2016-08-02 15:31:21:210
-3.03,-14.736,-1.729,-0.02,-0.797,-0.846,-10.9,39.1,-22.0,39509,2016-08-02 15:31:21:306
0.426,-10.104,4.156,-1.77,-0.96,0.359,-13.9,37.0,-25.6,39611,2016-08-02 15:31:21:408
0.426,-10.104,4.156,-1.77,-0.96,0.359,-13.9,37.0,-25.6,39713,2016-08-02 15:31:21:510
2.957,2.053,0.534,2.506,1.526,0.04,-9.7,40.3,-17.8,39809,2016-08-02 15:31:21:606
5.681,-1.208,-2.983,2.506,1.526,0.04,-9.7,40.3,-17.8,39911,2016-08-02 15:31:21:708
5.681,-1.208,-2.983,1.173,-1.822,0.578,-2.9,46.1,-10.9,40014,2016-08-02 15:31:21:811
4.629,-19.609,0.719,1.173,-1.822,0.578,-2.9,46.1,-10.9,40111,2016-08-02 15:31:21:908
4.629,-19.609,0.719,1.173,-1.822,0.578,-1.3,46.5,-11.0,40209,2016-08-02 15:31:22:006
2.85,-9.139,1.243,1.071,-1.758,-0.868,-1.3,46.5,-11.0,40313,2016-08-02 15:31:22:110
2.85,-9.139,1.243,1.071,-1.758,-0.868,-6.5,42.4,-19.1,40412,2016-08-02 15:31:22:209
-0.389,-11.964,0.754,-2.096,0.433,0.893,-6.5,42.4,-19.1,40511,2016-08-02 15:31:22:308
9.318,-13.429,-1.638,-2.096,0.433,0.893,-6.5,42.4,-19.1,40609,2016-08-02 15:31:22:406
9.318,-13.429,-1.638,-2.096,0.433,0.893,-11.7,38.8,-25.0,40712,2016-08-02 15:31:22:509
4.448,0.827,1.104,-1.538,0.765,1.388,-11.7,38.8,-25.0,40809,2016-08-02 15:31:22:606
4.448,0.827,1.104,-1.538,0.765,1.388,-10.5,39.8,-21.2,40915,2016-08-02 15:31:22:712
0.484,-0.681,-3.182,-1.018,0.13,1.17,-10.5,39.8,-21.2,41010,2016-08-02 15:31:22:807
0.484,-0.681,-3.182,-1.018,0.13,1.17,-4.6,43.7,-14.2,41111,2016-08-02 15:31:22:908
2.847,-16.656,2.072,3.147,-0.71,0.327,-4.6,43.7,-14.2,41214,2016-08-02 15:31:23:011
2.847,-16.656,2.072,3.147,-0.71,0.327,-2.1,44.8,-12.3,41309,2016-08-02 15:31:23:106
2.355,-10.086,0.499,3.147,-0.71,0.327,-2.1,44.8,-12.3,41410,2016-08-02 15:31:23:207
-3.826,-12.868,-7.634,-0.061,-0.166,-0.247,-5.2,41.5,-19.0,41514,2016-08-02 15:31:23:311
-3.826,-12.868,-7.634,-0.061,-0.166,-0.247,-5.2,41.5,-19.0,41610,2016-08-02 15:31:23:407
-0.217,-12.756,5.219,-0.944,-0.407,0.737,-10.6,37.7,-23.9,41711,2016-08-02 15:31:23:508
-0.217,-12.756,5.219,-0.944,-0.407,0.737,-10.6,37.7,-23.9,41813,2016-08-02 15:31:23:610
2.914,-0.957,0.331,-0.944,-0.407,0.737,-11.9,38.3,-23.0,41909,2016-08-02 15:31:23:706
2.914,-0.957,0.331,1.969,2.585,0.135,-11.9,38.3,-23.0,42011,2016-08-02 15:31:23:808
14.949,-17.947,-0.93,1.969,2.585,0.135,-7.2,42.3,-17.0,42114,2016-08-02 15:31:23:911
14.949,-17.947,-0.93,2.689,-2.994,-0.857,-7.2,42.3,-17.0,42211,2016-08-02 15:31:24:008
-2.078,-13.824,3.472,2.689,-2.994,-0.857,-2.9,44.9,-14.2,42308,2016-08-02 15:31:24:105
-2.078,-13.824,3.472,2.689,-2.994,-0.857,-2.9,44.9,-14.2,42411,2016-08-02 15:31:24:208
1.202,-10.566,-7.314,1.561,-1.982,-1.09,-5.3,42.5,-18.4,42510,2016-08-02 15:31:24:307
1.202,-14.645,-6.009,1.561,-1.982,-1.09,-5.3,42.5,-18.4,42610,2016-08-02 15:31:24:407
1.202,-14.645,-6.009,-2.584,0.427,2.416,-11.9,38.3,-24.5,42711,2016-08-02 15:31:24:508
-4.948,-9.573,2.099,-2.584,0.427,2.416,-11.9,38.3,-24.5,42811,2016-08-02 15:31:24:608
-4.948,-9.573,2.099,-0.998,2.219,0.656,-14.1,38.2,-24.2,42909,2016-08-02 15:31:24:706
1.002,-2.222,1.451,-0.998,2.219,0.656,-14.1,38.2,-24.2,43009,2016-08-02 15:31:24:806
1.002,-2.222,1.451,-0.998,2.219,0.656,-10.1,42.5,-18.7,43109,2016-08-02 15:31:24:906
14.547,-19.609,-11.708,0.782,1.634,-2.634,-10.1,42.5,-18.7,43210,2016-08-02 15:31:25:007
0.495,-8.191,-10.758,0.782,1.634,-2.634,-5.0,45.7,-13.6,43311,2016-08-02 15:31:25:108
0.495,-8.191,-10.758,1.111,1.95,0.053,-5.0,45.7,-13.6,43409,2016-08-02 15:31:25:206
-2.025,-12.417,-6.451,1.111,1.95,0.053,-5.3,43.8,-17.3,43510,2016-08-02 15:31:25:307
-2.025,-12.417,-6.451,1.111,1.95,0.053,-5.3,43.8,-17.3,43609,2016-08-02 15:31:25:406
4.857,-14.951,0.945,-0.443,-0.944,0.098,-11.5,38.4,-23.3,43709,2016-08-02 15:31:25:506
4.857,-14.951,0.945,-0.443,-0.944,0.098,-11.5,38.4,-23.3,43811,2016-08-02 15:31:25:608
0.211,-7.326,2.063,-1.49,-2.557,1.542,-14.5,37.2,-24.5,43911,2016-08-02 15:31:25:708
0.211,-7.326,2.063,-1.49,-2.557,1.542,-14.5,37.2,-24.5,44009,2016-08-02 15:31:25:806
3.491,-6.867,-4.772,-1.425,0.813,-0.428,-11.9,40.9,-17.0,44111,2016-08-02 15:31:25:908
3.491,-6.867,-4.772,-1.425,0.813,-0.428,-11.9,40.9,-17.0,44209,2016-08-02 15:31:26:006
10.958,-19.609,-15.21,-1.425,0.813,-0.428,-6.5,45.7,-11.5,44311,2016-08-02 15:31:26:108
4.265,-6.521,-5.528,1.154,1.333,-1.314,-6.5,45.7,-11.5,44411,2016-08-02 15:31:26:208
4.265,-6.521,-5.528,1.154,1.333,-1.314,-5.4,45.7,-12.8,44510,2016-08-02 15:31:26:307
0.831,-9.838,-2.753,0.795,-0.047,-0.999,-5.4,45.7,-12.8,44609,2016-08-02 15:31:26:406
0.831,-9.838,-2.753,0.795,-0.047,-0.999,-10.0,40.7,-20.6,44709,2016-08-02 15:31:26:506
3.11,-15.938,-2.936,0.795,-0.047,-0.999,-10.0,40.7,-20.6,44811,2016-08-02 15:31:26:608
3.11,-15.938,-2.936,-2.292,0.051,2.102,-13.6,37.3,-25.4,44909,2016-08-02 15:31:26:706
-1.416,-9.667,0.31,-2.292,0.051,2.102,-13.6,37.3,-25.4,45011,2016-08-02 15:31:26:808
-1.416,-9.667,0.31,0.099,3.505,0.42,-11.8,38.6,-22.2,45109,2016-08-02 15:31:26:906
1.729,-5.951,-1.653,0.099,3.505,0.42,-11.8,38.6,-22.2,45209,2016-08-02 15:31:27:006
13.181,-18.442,-9.705,-0.732,0.938,-1.834,-11.8,38.6,-22.2,45310,2016-08-02 15:31:27:107
13.181,-18.442,-9.705,-0.732,0.938,-1.834,-5.9,43.4,-16.2,45409,2016-08-02 15:31:27:206
5.747,-6.837,-2.917,-0.732,0.938,-1.834,-5.9,43.4,-16.2,45511,2016-08-02 15:31:27:308
5.747,-6.837,-2.917,0.828,-1.258,-0.298,-4.1,45.1,-13.7,45611,2016-08-02 15:31:27:408
-0.332,-9.92,-0.399,0.828,-1.258,-0.298,-4.1,45.1,-13.7,45709,2016-08-02 15:31:27:506
-0.332,-9.92,-0.399,-0.36,-0.765,-0.645,-6.7,42.3,-19.1,45811,2016-08-02 15:31:27:608
3.984,-13.293,-3.494,-0.36,-0.765,-0.645,-6.7,42.3,-19.1,45910,2016-08-02 15:31:27:707
3.984,-13.293,-3.494,-0.36,-0.765,-0.645,-11.9,37.7,-25.7,46009,2016-08-02 15:31:27:806
-2.686,-11.375,-1.346,-1.041,-4.137,0.709,-11.9,37.7,-25.7,46109,2016-08-02 15:31:27:906
3.291,-2.045,-0.501,-1.041,-4.137,0.709,-13.7,37.6,-25.2,46211,2016-08-02 15:31:28:008
3.291,-2.045,-0.501,2.567,0.514,-0.699,-13.7,37.6,-25.2,46309,2016-08-02 15:31:28:106
15.848,-19.609,-3.044,2.567,0.514,-0.699,-10.1,41.8,-19.5,46411,2016-08-02 15:31:28:208
15.848,-19.609,-3.044,2.464,-1.703,-0.687,-10.1,41.8,-19.5,46511,2016-08-02 15:31:28:308
-0.805,-11.013,-3.647,2.464,-1.703,-0.687,-5.5,45.5,-14.0,46609,2016-08-02 15:31:28:406
-0.805,-11.013,-3.647,2.464,-1.703,-0.687,-5.5,45.5,-14.0,46711,2016-08-02 15:31:28:508
-2.474,-10.903,-4.923,1.514,-1.728,-1.144,-6.7,44.1,-16.6,46810,2016-08-02 15:31:28:607
-2.474,-10.903,-4.923,1.514,-1.728,-1.144,-6.7,44.1,-16.6,46909,2016-08-02 15:31:28:706
1.158,-11.697,-0.122,-1.598,-0.695,0.265,-13.0,39.4,-21.4,47011,2016-08-02 15:31:28:808
15.608,-16.558,1.49,-1.598,-0.695,0.265,-13.0,39.4,-21.4,47111,2016-08-02 15:31:28:908
15.608,-16.558,1.49,-1.598,-0.695,0.265,-18.5,35.5,-26.4,47209,2016-08-02 15:31:29:006
4.323,-0.671,-1.416,-2.539,0.16,0.941,-18.5,35.5,-26.4,47311,2016-08-02 15:31:29:108
4.323,-0.671,-1.416,-2.539,0.16,0.941,-18.2,38.5,-18.7,47410,2016-08-02 15:31:29:207
-3.185,-12.507,-12.508,0.292,-0.702,0.456,-18.2,38.5,-18.7,47509,2016-08-02 15:31:29:306
-3.185,-12.507,-12.508,0.292,-0.702,0.456,-15.2,44.6,-8.5,47611,2016-08-02 15:31:29:408
-2.709,-19.6,1.037,1.984,-3.742,-0.281,-15.2,44.6,-8.5,47710,2016-08-02 15:31:29:507
-2.709,-19.6,1.037,1.984,-3.742,-0.281,-14.9,46.5,-3.7,47809,2016-08-02 15:31:29:606
-0.444,-12.907,-0.25,1.984,-3.742,-0.281,-14.9,46.5,-3.7,47910,2016-08-02 15:31:29:707
0.046,-9.931,0.238,0.819,-0.123,-0.257,-21.1,42.4,-9.9,48010,2016-08-02 15:31:29:807
0.046,-9.931,0.238,0.819,-0.123,-0.257,-21.1,42.4,-9.9,48109,2016-08-02 15:31:29:906
1.938,-14.077,-4.662,-0.285,-1.0,-0.032,-29.2,36.3,-15.7,48211,2016-08-02 15:31:30:008
1.938,-14.077,-4.662,-0.285,-1.0,-0.032,-29.2,36.3,-15.7,48310,2016-08-02 15:31:30:107
4.808,-8.83,3.635,-0.285,-1.0,-0.032,-34.5,32.8,-14.0,48409,2016-08-02 15:31:30:206
4.808,-8.83,3.635,-0.935,0.258,0.998,-34.5,32.8,-14.0,48511,2016-08-02 15:31:30:308
0.985,-4.445,-2.622,-0.935,0.258,0.998,-35.2,34.5,-4.7,48609,2016-08-02 15:31:30:406
0.985,-4.445,-2.622,-0.121,0.858,-0.077,-35.2,34.5,-4.7,48711,2016-08-02 15:31:30:508
-3.39,-9.849,-7.224,-0.121,0.858,-0.077,-32.9,37.6,5.0,48811,2016-08-02 15:31:30:608
1.906,-10.545,-0.794,1.83,-1.895,-1.249,-32.9,37.6,5.0,48910,2016-08-02 15:31:30:707
1.906,-10.545,-0.794,1.83,-1.895,-1.249,-31.3,38.9,9.2,49010,2016-08-02 15:31:30:807
0.602,-9.779,-2.727,1.83,-1.895,-1.249,-31.3,38.9,9.2,49111,2016-08-02 15:31:30:908
0.602,-9.779,-2.727,0.847,1.577,-0.063,-33.1,38.0,7.0,49210,2016-08-02 15:31:31:007
1.205,-9.638,0.194,0.847,1.577,-0.063,-33.1,38.0,7.0,49309,2016-08-02 15:31:31:106
1.205,-9.638,0.194,0.887,-0.517,0.104,-36.1,35.1,0.7,49411,2016-08-02 15:31:31:208
1.246,-13.437,0.326,0.887,-0.517,0.104,-36.1,35.1,0.7,49511,2016-08-02 15:31:31:308
1.246,-13.437,0.326,0.887,-0.517,0.104,-38.5,33.1,-4.6,49610,2016-08-02 15:31:31:407
8.016,-9.919,2.955,-2.176,-0.161,0.666,-38.5,33.1,-4.6,49710,2016-08-02 15:31:31:507
0.855,-5.582,-0.927,-2.176,-0.161,0.666,-37.5,33.7,-2.6,49809,2016-08-02 15:31:31:606
0.855,-5.582,-0.927,-0.896,0.576,0.038,-37.5,33.7,-2.6,49909,2016-08-02 15:31:31:706
-0.727,-13.198,-9.025,-0.896,0.576,0.038,-35.0,36.3,4.2,50009,2016-08-02 15:31:31:806
-0.727,-13.198,-9.025,1.374,0.799,0.816,-35.0,36.3,4.2,50109,2016-08-02 15:31:31:906
3.077,-18.109,3.586,1.374,0.799,0.816,-32.4,38.9,8.9,50210,2016-08-02 15:31:32:007
3.077,-18.109,3.586,1.374,0.799,0.816,-32.4,38.9,8.9,50309,2016-08-02 15:31:32:106
4.465,-8.548,0.089,1.401,1.785,0.586,-34.0,37.9,6.0,50408,2016-08-02 15:31:32:205
4.465,-8.548,0.089,1.401,1.785,0.586,-34.0,37.9,6.0,50511,2016-08-02 15:31:32:308
-0.221,-11.182,-0.783,-0.301,-0.006,-0.392,-34.0,37.9,6.0,50611,2016-08-02 15:31:32:408
1.356,-11.058,-0.989,-0.301,-0.006,-0.392,-36.2,35.6,-1.0,50709,2016-08-02 15:31:32:506
1.356,-11.058,-0.989,-0.301,-0.006,-0.392,-36.2,35.6,-1.0,50809,2016-08-02 15:31:32:606
-1.383,-10.329,-0.819,-0.889,0.124,1.167,-38.8,33.2,-6.9,50910,2016-08-02 15:31:32:707
-1.383,-10.329,-0.819,-0.889,0.124,1.167,-38.8,33.2,-6.9,51009,2016-08-02 15:31:32:806
1.323,-5.282,-0.555,1.717,0.897,-0.742,-36.5,35.3,-1.8,51110,2016-08-02 15:31:32:907
1.323,-5.282,-0.555,1.717,0.897,-0.742,-36.5,35.3,-1.8,51210,2016-08-02 15:31:33:007
10.327,-14.582,-1.885,-1.091,0.569,-0.44,-32.3,38.8,1.7,51309,2016-08-02 15:31:33:106
10.327,-14.582,-1.885,-1.091,0.569,-0.44,-32.3,38.8,1.7,51409,2016-08-02 15:31:33:206
-0.892,-19.217,2.64,-1.091,0.569,-0.44,-30.1,40.9,2.1,51510,2016-08-02 15:31:33:307
2.07,-9.322,-4.581,1.65,-0.468,0.685,-30.1,40.9,2.1,51609,2016-08-02 15:31:33:406
2.07,-9.322,-4.581,1.65,-0.468,0.685,-32.9,39.1,-3.1,51709,2016-08-02 15:31:33:506
2.143,-13.049,-1.508,0.217,0.026,0.315,-32.9,39.1,-3.1,51809,2016-08-02 15:31:33:606
2.143,-13.049,-1.508,0.217,0.026,0.315,-36.4,35.9,-5.9,51909,2016-08-02 15:31:33:706
9.86,-11.842,-6.562,0.217,0.026,0.315,-36.4,35.9,-5.9,52010,2016-08-02 15:31:33:807
9.86,-11.842,-6.562,-1.845,-3.09,0.536,-36.7,35.0,-5.2,52110,2016-08-02 15:31:33:907
3.081,-0.424,0.549,-1.845,-3.09,0.536,-36.7,35.0,-5.2,52209,2016-08-02 15:31:34:006
3.081,-0.424,0.549,1.722,0.572,-1.02,-34.4,36.4,2.3,52309,2016-08-02 15:31:34:106
5.857,-2.161,-3.014,1.722,0.572,-1.02,-34.4,36.4,2.3,52409,2016-08-02 15:31:34:206
4.013,-10.567,2.938,1.912,-2.023,-1.297,-31.9,38.8,7.4,52509,2016-08-02 15:31:34:306
4.013,-10.567,2.938,1.912,-2.023,-1.297,-31.9,38.8,7.4,52611,2016-08-02 15:31:34:408
1.496,-10.5,-1.007,1.912,-2.023,-1.297,-33.3,37.9,6.2,52711,2016-08-02 15:31:34:508
1.496,-10.5,-1.007,0.198,-0.629,-0.624,-33.3,37.9,6.2,52809,2016-08-02 15:31:34:606
1.636,-12.136,-3.733,0.198,-0.629,-0.624,-36.0,35.9,1.4,52911,2016-08-02 15:31:34:708
1.636,-12.136,-3.733,-3.637,0.925,1.246,-36.0,35.9,1.4,53011,2016-08-02 15:31:34:808
9.154,-13.87,-0.987,-3.637,0.925,1.246,-38.6,33.7,-0.7,53109,2016-08-02 15:31:34:906
9.154,-13.87,-0.987,-3.637,0.925,1.246,-38.6,33.7,-0.7,53209,2016-08-02 15:31:35:006
3.218,-0.559,1.016,-0.903,0.71,0.782,-37.0,34.1,3.8,53311,2016-08-02 15:31:35:108
1.357,-4.794,-2.9,-0.903,0.71,0.782,-37.0,34.1,3.8,53409,2016-08-02 15:31:35:206
1.357,-4.794,-2.9,-0.231,0.794,-0.648,-34.9,36.1,8.0,53510,2016-08-02 15:31:35:307
2.938,-6.947,3.743,-0.231,0.794,-0.648,-34.9,36.1,8.0,53611,2016-08-02 15:31:35:408
2.938,-6.947,3.743,1.625,1.382,0.738,-34.0,37.4,9.0,53709,2016-08-02 15:31:35:506
4.447,-8.413,0.728,1.625,1.382,0.738,-34.0,37.4,9.0,53810,2016-08-02 15:31:35:607
4.447,-8.413,0.728,1.625,1.382,0.738,-36.6,36.5,3.1,53909,2016-08-02 15:31:35:706
-0.05,-13.126,-1.951,0.059,-0.075,-0.382,-36.6,36.5,3.1,54009,2016-08-02 15:31:35:806
-0.05,-13.126,-1.951,0.059,-0.075,-0.382,-39.1,34.6,-0.9,54111,2016-08-02 15:31:35:908
9.953,-14.198,-0.737,-0.395,-2.302,1.384,-39.1,34.6,-0.9,54209,2016-08-02 15:31:36:006
3.606,-1.359,0.698,-0.395,-2.302,1.384,-38.0,35.0,0.7,54309,2016-08-02 15:31:36:106
3.606,-1.359,0.698,-0.395,-2.302,1.384,-38.0,35.0,0.7,54410,2016-08-02 15:31:36:207
0.049,-8.127,-3.837,2.952,0.654,-0.429,-35.1,36.8,5.1,54511,2016-08-02 15:31:36:308
0.049,-8.127,-3.837,2.952,0.654,-0.429,-35.1,36.8,5.1,54609,2016-08-02 15:31:36:406
1.951,-3.314,5.503,1.553,-3.753,-1.074,-32.6,39.1,7.7,54710,2016-08-02 15:31:36:507
1.951,-3.314,5.503,1.553,-3.753,-1.074,-32.6,39.1,7.7,54811,2016-08-02 15:31:36:608
5.841,-7.694,2.049,1.472,-2.268,-0.819,-34.6,38.1,3.4,54909,2016-08-02 15:31:36:706
5.841,-7.694,2.049,1.472,-2.268,-0.819,-34.6,38.1,3.4,55010,2016-08-02 15:31:36:807
-0.589,-12.246,-3.25,1.472,-2.268,-0.819,-37.6,34.6,-0.1,55110,2016-08-02 15:31:36:907
10.758,-14.113,0.484,-2.968,0.481,1.299,-37.6,34.6,-0.1,55209,2016-08-02 15:31:37:006
10.758,-14.113,0.484,-2.968,0.481,1.299,-37.6,34.6,-0.1,55309,2016-08-02 15:31:37:106
3.216,-0.852,1.083,-1.306,0.736,1.014,-39.0,32.9,-1.2,55409,2016-08-02 15:31:37:206
3.216,-0.852,1.083,-1.306,0.736,1.014,-39.0,32.9,-1.2,55510,2016-08-02 15:31:37:307
2.168,-15.739,-9.943,-1.306,0.736,1.014,-36.2,34.9,4.0,55609,2016-08-02 15:31:37:406
2.168,-15.739,-9.943,-1.115,-0.473,0.774,-36.2,34.9,4.0,55709,2016-08-02 15:31:37:506
1.521,-4.349,6.876,-1.115,-0.473,0.774,-33.1,38.4,7.4,55810,2016-08-02 15:31:37:607
1.521,-4.349,6.876,2.596,-1.251,0.013,-33.1,38.4,7.4,55909,2016-08-02 15:31:37:706
5.091,-7.642,2.446,2.596,-1.251,0.013,-33.4,38.4,5.8,56009,2016-08-02 15:31:37:806
1.009,-11.811,-4.106,0.667,-1.127,0.012,-33.4,38.4,5.8,56108,2016-08-02 15:31:37:905
1.009,-11.811,-4.106,0.667,-1.127,0.012,-35.8,36.6,1.5,56210,2016-08-02 15:31:38:007
7.837,-13.967,1.349,0.667,-1.127,0.012,-35.8,36.6,1.5,56309,2016-08-02 15:31:38:106
7.837,-13.967,1.349,-0.052,1.058,0.894,-38.0,33.6,-0.8,56409,2016-08-02 15:31:38:206
2.918,-2.149,0.594,-0.052,1.058,0.894,-38.0,33.6,-0.8,56511,2016-08-02 15:31:38:308
2.918,-2.149,0.594,2.242,1.168,-0.454,-36.4,34.3,3.5,56609,2016-08-02 15:31:38:406
-7.712,-19.503,-11.976,2.242,1.168,-0.454,-36.4,34.3,3.5,56710,2016-08-02 15:31:38:507
-7.712,-19.503,-11.976,2.242,1.168,-0.454,-33.4,37.1,6.1,56809,2016-08-02 15:31:38:606
1.281,-6.227,7.066,1.588,-2.717,-1.002,-33.4,37.1,6.1,56909,2016-08-02 15:31:38:706
3.908,-7.697,1.386,1.588,-2.717,-1.002,-31.6,38.9,6.5,57009,2016-08-02 15:31:38:806
3.908,-7.697,1.386,1.363,-2.796,-0.722,-31.6,38.9,6.5,57109,2016-08-02 15:31:38:906
-0.281,-12.232,-0.368,1.363,-2.796,-0.722,-34.0,37.4,1.8,57211,2016-08-02 15:31:39:008
-0.281,-12.232,-0.368,-2.569,0.063,0.779,-34.0,37.4,1.8,57315,2016-08-02 15:31:39:112
5.901,-14.736,1.086,-2.569,0.063,0.779,-37.3,34.8,-0.5,57409,2016-08-02 15:31:39:206
5.901,-14.736,1.086,-2.569,0.063,0.779,-37.3,34.8,-0.5,57511,2016-08-02 15:31:39:308
1.481,-3.887,1.144,-1.164,0.934,1.075,-36.2,35.2,2.2,57609,2016-08-02 15:31:39:406
1.481,-3.887,1.144,-1.164,0.934,1.075,-36.2,35.2,2.2,57711,2016-08-02 15:31:39:508
-0.407,-16.953,-8.758,-0.382,-0.9,0.94,-33.7,37.1,6.8,57809,2016-08-02 15:31:39:606
-0.407,-16.953,-8.758,-0.382,-0.9,0.94,-33.7,37.1,6.8,57910,2016-08-02 15:31:39:707
-2.43,-8.08,5.974,-0.382,-0.9,0.94,-31.3,38.7,9.7,58009,2016-08-02 15:31:39:806
4.181,-7.318,2.559,2.524,-0.473,0.509,-31.3,38.7,9.7,58109,2016-08-02 15:31:39:906
4.181,-7.318,2.559,2.524,-0.473,0.509,-33.4,37.8,5.5,58210,2016-08-02 15:31:40:007
1.528,-11.536,-2.984,0.743,-0.87,-0.047,-33.4,37.8,5.5,58308,2016-08-02 15:31:40:105
1.528,-11.536,-2.984,0.743,-0.87,-0.047,-36.2,35.3,2.5,58409,2016-08-02 15:31:40:206
6.349,-14.647,3.5,0.197,1.681,1.176,-36.2,35.3,2.5,58511,2016-08-02 15:31:40:308
6.349,-14.647,3.5,0.197,1.681,1.176,-36.4,34.7,3.7,58609,2016-08-02 15:31:40:406
0.757,-3.35,1.162,0.197,1.681,1.176,-36.4,34.7,3.7,58711,2016-08-02 15:31:40:508
-2.671,-14.579,-7.746,2.244,1.565,-0.604,-33.7,35.6,9.0,58810,2016-08-02 15:31:40:607
-2.671,-14.579,-7.746,2.244,1.565,-0.604,-33.7,35.6,9.0,58909,2016-08-02 15:31:40:706
0.861,-6.877,4.975,1.623,-3.053,-1.261,-31.1,37.6,12.5,59009,2016-08-02 15:31:40:806
0.861,-6.877,4.975,1.623,-3.053,-1.261,-31.1,37.6,12.5,59112,2016-08-02 15:31:40:909
5.564,-7.199,0.537,1.623,-3.053,-1.261,-33.1,36.8,8.8,59209,2016-08-02 15:31:41:006
5.564,-7.199,0.537,1.119,-1.49,-1.033,-33.1,36.8,8.8,59311,2016-08-02 15:31:41:108
0.017,-13.029,-1.327,1.119,-1.49,-1.033,-36.0,34.7,3.8,59412,2016-08-02 15:31:41:209
0.017,-13.029,-1.327,-2.998,0.654,1.698,-36.0,34.7,3.8,59509,2016-08-02 15:31:41:306
9.771,-14.764,1.517,-2.998,0.654,1.698,-37.9,33.4,1.5,59609,2016-08-02 15:31:41:406
9.771,-14.764,1.517,-2.998,0.654,1.698,-37.9,33.4,1.5,59712,2016-08-02 15:31:41:509
3.637,-1.579,1.223,-1.02,1.778,1.258,-37.9,33.4,1.5,59809,2016-08-02 15:31:41:606
1.177,-5.603,-4.187,-1.02,1.778,1.258,-35.4,34.9,4.3,59910,2016-08-02 15:31:41:707
1.177,-5.603,-4.187,-0.361,1.073,-0.923,-32.1,37.9,7.1,60011,2016-08-02 15:31:41:808
2.13,-6.006,3.332,-0.361,1.073,-0.923,-32.1,37.9,7.1,60109,2016-08-02 15:31:41:906
2.13,-6.006,3.332,1.435,-1.576,-0.016,-32.1,37.9,7.1,60209,2016-08-02 15:31:42:006
4.429,-8.944,0.042,1.435,-1.576,-0.016,-32.2,38.7,6.0,60313,2016-08-02 15:31:42:110
4.429,-8.944,0.042,1.435,-1.576,-0.016,-32.2,38.7,6.0,60409,2016-08-02 15:31:42:206
1.756,-12.13,-1.28,0.105,-0.337,-0.04,-34.6,37.0,1.0,60509,2016-08-02 15:31:42:306
1.756,-12.13,-1.28,0.105,-0.337,-0.04,-34.6,37.0,1.0,60611,2016-08-02 15:31:42:408
8.865,-15.164,-0.563,-0.4,-1.111,1.549,-37.0,34.1,-1.6,60709,2016-08-02 15:31:42:506
4.28,-1.5,0.833,-0.4,-1.111,1.549,-37.0,34.1,-1.6,60809,2016-08-02 15:31:42:606
4.28,-1.5,0.833,-0.4,-1.111,1.549,-34.7,35.0,2.5,60913,2016-08-02 15:31:42:710
1.346,-7.869,-3.505,2.415,0.639,-0.662,-34.7,35.0,2.5,61009,2016-08-02 15:31:42:806
1.346,-7.869,-3.505,2.415,0.639,-0.662,-31.1,37.5,6.8,61111,2016-08-02 15:31:42:908
0.499,-8.98,3.502,2.09,-1.785,-1.185,-31.1,37.5,6.8,61209,2016-08-02 15:31:43:006
0.499,-8.98,3.502,2.09,-1.785,-1.185,-29.3,39.2,7.9,61309,2016-08-02 15:31:43:106
3.882,-8.513,0.586,1.171,-1.823,-0.775,-29.3,39.2,7.9,61411,2016-08-02 15:31:43:208
3.882,-8.513,0.586,1.171,-1.823,-0.775,-31.7,38.2,2.8,61513,2016-08-02 15:31:43:310
-1.502,-11.743,-1.594,1.171,-1.823,-0.775,-31.7,38.2,2.8,61610,2016-08-02 15:31:43:407
7.198,-13.397,4.416,-2.147,0.285,0.957,-35.6,35.2,-1.6,61709,2016-08-02 15:31:43:506
7.198,-13.397,4.416,-2.147,0.285,0.957,-35.6,35.2,-1.6,61814,2016-08-02 15:31:43:611
0.613,-4.353,1.059,-0.81,0.456,1.133,-36.1,34.4,-1.6,61911,2016-08-02 15:31:43:708
0.613,-4.353,1.059,-0.81,0.456,1.133,-36.1,34.4,-1.6,62011,2016-08-02 15:31:43:808
-4.212,-19.535,-10.676,-0.81,0.456,1.133,-33.7,35.6,2.6,62109,2016-08-02 15:31:43:906
-4.212,-19.535,-10.676,-1.147,-0.205,0.524,-33.7,35.6,2.6,62209,2016-08-02 15:31:44:006
3.23,-2.81,7.456,-1.147,-0.205,0.524,-30.6,38.6,5.6,62309,2016-08-02 15:31:44:106
3.23,-2.81,7.456,2.083,-0.977,0.026,-30.6,38.6,5.6,62409,2016-08-02 15:31:44:206
4.077,-7.951,1.142,2.083,-0.977,0.026,-30.9,38.2,2.8,62509,2016-08-02 15:31:44:306
0.167,-10.238,-0.371,0.746,-1.238,-0.713,-30.9,38.2,2.8,62608,2016-08-02 15:31:44:405
0.167,-10.238,-0.371,0.746,-1.238,-0.713,-33.5,35.9,-0.8,62709,2016-08-02 15:31:44:506
0.607,-10.783,-3.997,0.746,-1.238,-0.713,-33.5,35.9,-0.8,62809,2016-08-02 15:31:44:606
0.607,-10.783,-3.997,-2.898,0.405,1.118,-36.0,33.4,-4.1,62909,2016-08-02 15:31:44:706
-1.827,-11.275,-0.107,-2.898,0.405,1.118,-36.0,33.4,-4.1,63009,2016-08-02 15:31:44:806
-1.827,-11.275,-0.107,-0.27,0.991,0.744,-35.5,34.0,-1.1,63109,2016-08-02 15:31:44:906
1.048,-5.652,-0.073,-0.27,0.991,0.744,-35.5,34.0,-1.1,63209,2016-08-02 15:31:45:006
10.121,-15.246,-0.065,-0.221,1.038,-0.543,-32.4,36.8,2.1,63311,2016-08-02 15:31:45:108
10.121,-15.246,-0.065,-0.221,1.038,-0.543,-32.4,36.8,2.1,63411,2016-08-02 15:31:45:208
-2.494,-19.585,-0.294,-0.221,1.038,-0.543,-29.5,39.5,3.5,63511,2016-08-02 15:31:45:308
-2.494,-19.585,-0.294,1.323,-2.618,-0.381,-29.5,39.5,3.5,63610,2016-08-02 15:31:45:407
3.762,-9.182,-2.941,1.323,-2.618,-0.381,-30.8,38.5,-0.3,63711,2016-08-02 15:31:45:508
3.762,-9.182,-2.941,1.025,-0.066,-0.327,-30.8,38.5,-0.3,63811,2016-08-02 15:31:45:608
3.892,-12.36,1.242,1.025,-0.066,-0.327,-34.1,35.4,-2.7,63910,2016-08-02 15:31:45:707
3.892,-12.36,1.242,1.025,-0.066,-0.327,-34.1,35.4,-2.7,64010,2016-08-02 15:31:45:807
10.537,-14.314,-0.317,-1.818,0.033,0.71,-36.8,32.6,-4.1,64110,2016-08-02 15:31:45:907
10.537,-14.314,-0.317,-1.818,0.033,0.71,-36.8,32.6,-4.1,64211,2016-08-02 15:31:46:008
3.247,-0.515,0.764,1.044,2.158,-0.055,-34.1,34.1,2.1,64311,2016-08-02 15:31:46:108
0.272,-5.422,-2.632,1.044,2.158,-0.055,-34.1,34.1,2.1,64410,2016-08-02 15:31:46:207
0.272,-5.422,-2.632,1.044,2.158,-0.055,-31.3,36.7,6.2,64510,2016-08-02 15:31:46:307
1.745,-6.351,4.207,-0.474,-0.011,0.101,-31.3,36.7,6.2,64610,2016-08-02 15:31:46:407
1.745,-6.351,4.207,-0.474,-0.011,0.101,-30.8,37.2,6.0,64709,2016-08-02 15:31:46:506
5.705,-7.572,1.174,1.651,0.299,0.497,-30.8,37.2,6.0,64809,2016-08-02 15:31:46:606
5.705,-7.572,1.174,1.651,0.299,0.497,-33.5,36.3,0.4,64909,2016-08-02 15:31:46:706
-0.511,-12.635,-3.754,-0.381,-0.094,-0.175,-33.5,36.3,0.4,65010,2016-08-02 15:31:46:807
-0.511,-12.635,-3.754,-0.381,-0.094,-0.175,-36.6,33.4,-4.1,65110,2016-08-02 15:31:46:907
6.9,-13.41,2.728,-0.381,-0.094,-0.175,-36.6,33.4,-4.1,65210,2016-08-02 15:31:47:007
1.347,-4.203,0.663,-2.25,-2.519,0.895,-36.6,33.4,-4.1,65310,2016-08-02 15:31:47:107
1.347,-4.203,0.663,-2.25,-2.519,0.895,-35.3,34.8,-1.9,65411,2016-08-02 15:31:47:208
-5.331,-19.609,-11.782,0.793,0.309,-0.556,-35.3,34.8,-1.9,65511,2016-08-02 15:31:47:308
-5.331,-19.609,-11.782,0.793,0.309,-0.556,-31.7,37.3,2.8,65610,2016-08-02 15:31:47:407
3.314,-2.079,7.023,0.793,0.309,-0.556,-31.7,37.3,2.8,65709,2016-08-02 15:31:47:506
3.314,-2.079,7.023,1.591,-1.221,-1.777,-28.6,40.4,5.2,65809,2016-08-02 15:31:47:606
3.763,-7.992,1.623,1.591,-1.221,-1.777,-28.6,40.4,5.2,65909,2016-08-02 15:31:47:706
3.763,-7.992,1.623,0.145,-0.151,-0.731,-30.7,38.7,1.4,66010,2016-08-02 15:31:47:807
-0.317,-10.608,0.789,0.145,-0.151,-0.731,-30.7,38.7,1.4,66111,2016-08-02 15:31:47:908
-0.29,-11.201,-0.821,-2.683,0.379,1.18,-34.1,35.6,-2.5,66211,2016-08-02 15:31:48:008
-0.29,-11.201,-0.821,-2.683,0.379,1.18,-34.1,35.6,-2.5,66311,2016-08-02 15:31:48:108
-1.697,-9.958,1.641,-2.683,0.379,1.18,-35.6,33.8,-3.9,66410,2016-08-02 15:31:48:207
-1.697,-9.958,1.641,-0.712,0.726,1.537,-35.6,33.8,-3.9,66509,2016-08-02 15:31:48:306
0.611,-7.148,-2.52,-0.712,0.726,1.537,-33.3,35.7,0.8,66609,2016-08-02 15:31:48:406
0.611,-7.148,-2.52,-1.196,-0.196,0.863,-33.3,35.7,0.8,66710,2016-08-02 15:31:48:507
9.082,-17.753,-7.605,-1.196,-0.196,0.863,-29.6,39.1,4.6,66809,2016-08-02 15:31:48:606
9.082,-17.753,-7.605,-1.196,-0.196,0.863,-29.6,39.1,4.6,66909,2016-08-02 15:31:48:706
-3.507,-8.814,-7.567,2.021,-1.048,-0.481,-29.3,39.7,4.9,67011,2016-08-02 15:31:48:808
0.693,-9.082,2.728,2.021,-1.048,-0.481,-29.3,39.7,4.9,67111,2016-08-02 15:31:48:908
0.693,-9.082,2.728,0.774,-1.075,-0.818,-31.7,37.9,0.4,67211,2016-08-02 15:31:49:008
1.072,-13.636,-5.981,0.774,-1.075,-0.818,-31.7,37.9,0.4,67308,2016-08-02 15:31:49:105
1.072,-13.636,-5.981,-2.81,-0.234,1.527,-34.8,34.8,-2.5,67409,2016-08-02 15:31:49:206
8.334,-12.17,-2.054,-2.81,-0.234,1.527,-34.8,34.8,-2.5,67509,2016-08-02 15:31:49:306
8.334,-12.17,-2.054,-2.81,-0.234,1.527,-34.5,34.0,-1.3,67609,2016-08-02 15:31:49:406
4.087,-2.348,-0.211,-0.303,1.037,0.582,-34.5,34.0,-1.3,67709,2016-08-02 15:31:49:506
4.087,-2.348,-0.211,-0.303,1.037,0.582,-31.7,35.2,3.7,67809,2016-08-02 15:31:49:606
0.228,-6.791,-0.551,-0.047,1.725,-0.482,-31.7,35.2,3.7,67909,2016-08-02 15:31:49:706
3.825,-0.852,5.38,-0.047,1.725,-0.482,-27.5,38.2,6.5,68009,2016-08-02 15:31:49:806
3.825,-0.852,5.38,-0.047,1.725,-0.482,-27.5,38.2,6.5,68109,2016-08-02 15:31:49:906
4.532,-8.371,1.563,1.326,-1.309,0.005,-27.5,38.2,5.7,68209,2016-08-02 15:31:50:006
4.532,-8.371,1.563,1.326,-1.309,0.005,-27.5,38.2,5.7,68311,2016-08-02 15:31:50:108
-0.14,-13.113,-3.119,0.941,-0.381,-0.676,-29.7,36.2,2.7,68409,2016-08-02 15:31:50:206
-0.14,-13.113,-3.119,0.941,-0.381,-0.676,-29.7,36.2,2.7,68510,2016-08-02 15:31:50:307
4.167,-14.814,3.926,-0.783,0.89,1.246,-32.5,32.4,1.9,68611,2016-08-02 15:31:50:408
4.167,-14.814,3.926,-0.783,0.89,1.246,-32.5,32.4,1.9,68709,2016-08-02 15:31:50:506
1.244,-5.616,0.921,-0.783,0.89,1.246,-31.9,29.6,6.4,68809,2016-08-02 15:31:50:606
0.382,-17.269,-13.125,0.732,1.91,-0.164,-31.9,29.6,6.4,68910,2016-08-02 15:31:50:707
0.382,-17.269,-13.125,0.732,1.91,-0.164,-31.8,26.7,10.7,69011,2016-08-02 15:31:50:808
4.686,-14.882,-4.781,1.005,0.47,-0.887,-31.8,26.7,10.7,69109,2016-08-02 15:31:50:906
4.686,-14.882,-4.781,1.005,0.47,-0.887,-33.8,25.1,11.5,69211,2016-08-02 15:31:51:008
-4.284,-8.712,-6.694,1.005,0.47,-0.887,-33.8,25.1,11.5,69312,2016-08-02 15:31:51:109
-4.284,-8.712,-6.694,1.456,1.456,0.878,-39.4,22.6,8.3,69409,2016-08-02 15:31:51:206
-0.998,-10.022,2.031,1.456,1.456,0.878,-39.4,22.6,8.3,69511,2016-08-02 15:31:51:308
-0.998,-10.022,2.031,0.275,-0.273,0.091,-43.7,19.9,6.7,69609,2016-08-02 15:31:51:406
-0.702,-14.781,-3.47,0.275,-0.273,0.091,-43.7,19.9,6.7,69711,2016-08-02 15:31:51:508
-3.038,-11.158,0.604,-1.681,-3.266,0.498,-45.4,18.8,5.2,69810,2016-08-02 15:31:51:607
-3.038,-11.158,0.604,-1.681,-3.266,0.498,-45.4,18.8,5.2,69909,2016-08-02 15:31:51:706
1.632,-2.372,-0.31,-1.681,-3.266,0.498,-41.9,22.2,6.6,70009,2016-08-02 15:31:51:806
1.632,-2.372,-0.31,2.345,0.638,-0.49,-41.9,22.2,6.6,70109,2016-08-02 15:31:51:906
10.618,-17.227,0.172,2.345,0.638,-0.49,-36.5,27.1,5.9,70211,2016-08-02 15:31:52:008
10.618,-17.227,0.172,1.776,-3.298,-1.003,-36.5,27.1,5.9,70311,2016-08-02 15:31:52:108
-0.177,-19.603,-1.328,1.776,-3.298,-1.003,-32.7,28.2,6.1,70410,2016-08-02 15:31:52:207
-0.177,-19.603,-1.328,1.776,-3.298,-1.003,-32.7,28.2,6.1,70509,2016-08-02 15:31:52:306
0.214,-10.096,-2.942,1.214,-2.335,-0.773,-34.1,24.7,4.1,70611,2016-08-02 15:31:52:408
4.008,-12.43,-0.163,1.214,-2.335,-0.773,-34.1,24.7,4.1,70709,2016-08-02 15:31:52:506
4.008,-12.43,-0.163,-0.768,0.282,-0.122,-36.0,20.5,4.4,70809,2016-08-02 15:31:52:606
5.924,-12.186,0.083,-0.768,0.282,-0.122,-36.0,20.5,4.4,70909,2016-08-02 15:31:52:706
5.924,-12.186,0.083,-1.222,-0.994,1.706,-36.5,16.9,3.6,71009,2016-08-02 15:31:52:806
3.215,-0.804,-0.019,-1.222,-0.994,1.706,-36.5,16.9,3.6,71109,2016-08-02 15:31:52:906
3.215,-0.804,-0.019,-1.222,-0.994,1.706,-31.7,18.5,0.1,71209,2016-08-02 15:31:53:006
-3.888,-11.942,-12.217,0.485,0.101,-0.981,-31.7,18.5,0.1,71309,2016-08-02 15:31:53:106
-3.888,-11.942,-12.217,0.485,0.101,-0.981,-24.5,18.0,-4.7,71408,2016-08-02 15:31:53:205
1.478,-5.371,-4.156,0.225,0.821,-0.623,-24.5,18.0,-4.7,71509,2016-08-02 15:31:53:306
1.723,-5.327,-0.998,0.225,0.821,-0.623,-19.9,13.8,-4.0,71608,2016-08-02 15:31:53:405
1.723,-5.327,-0.998,0.225,0.821,-0.623,-19.9,13.8,-4.0,71708,2016-08-02 15:31:53:505
1.916,-11.182,0.634,1.454,-0.289,-0.438,-23.1,7.1,0.3,71809,2016-08-02 15:31:53:606
1.916,-11.182,0.634,1.454,-0.289,-0.438,-23.1,7.1,0.3,71909,2016-08-02 15:31:53:706
9.691,-15.182,2.215,-2.655,0.332,1.386,-30.1,5.4,1.7,72008,2016-08-02 15:31:53:805
9.691,-15.182,2.215,-2.655,0.332,1.386,-30.1,5.4,1.7,72109,2016-08-02 15:31:53:906
3.534,-2.02,-0.245,0.113,2.235,0.46,-30.9,10.7,0.8,72209,2016-08-02 15:31:54:006
3.534,-2.02,-0.245,0.113,2.235,0.46,-30.9,10.7,0.8,72309,2016-08-02 15:31:54:106
-2.107,-19.514,-10.139,0.113,2.235,0.46,-26.4,18.7,1.3,72410,2016-08-02 15:31:54:207
2.475,-19.609,-7.269,-0.262,1.975,0.105,-26.4,18.7,1.3,72509,2016-08-02 15:31:54:306
2.475,-19.609,-7.269,-0.262,1.975,0.105,-26.4,18.7,1.3,72609,2016-08-02 15:31:54:406
-6.514,-9.782,-4.189,2.044,-2.783,-1.122,-22.2,25.0,4.7,72709,2016-08-02 15:31:54:506
-6.514,-9.782,-4.189,2.044,-2.783,-1.122,-22.2,25.0,4.7,72809,2016-08-02 15:31:54:606
2.443,-8.29,2.936,2.044,-2.783,-1.122,-25.0,26.2,6.5,72909,2016-08-02 15:31:54:706
2.443,-8.29,2.936,0.721,-1.379,-1.125,-25.0,26.2,6.5,73009,2016-08-02 15:31:54:806
0.508,-14.742,-5.873,0.721,-1.379,-1.125,-29.9,26.5,6.7,73109,2016-08-02 15:31:54:906
0.508,-14.742,-5.873,-2.356,-0.566,0.508,-29.9,26.5,6.7,73209,2016-08-02 15:31:55:006
3.181,-10.721,-0.438,-2.356,-0.566,0.508,-34.3,26.6,5.8,73309,2016-08-02 15:31:55:106
1.748,-1.22,0.769,0.295,2.083,-0.318,-34.3,26.6,5.8,73409,2016-08-02 15:31:55:206
1.748,-1.22,0.769,0.295,2.083,-0.318,-33.1,27.2,10.7,73508,2016-08-02 15:31:55:305
7.919,-4.936,-4.532,0.295,2.083,-0.318,-33.1,27.2,10.7,73608,2016-08-02 15:31:55:405
7.919,-4.936,-4.532,-0.409,1.251,-1.374,-30.5,28.6,14.7,73709,2016-08-02 15:31:55:506
-0.776,-19.465,-1.595,-0.409,1.251,-1.374,-30.5,28.6,14.7,73809,2016-08-02 15:31:55:606
-0.776,-19.465,-1.595,1.54,0.816,0.535,-29.5,29.2,16.4,73909,2016-08-02 15:31:55:706
-0.447,-9.389,0.26,1.54,0.816,0.535,-29.5,29.2,16.4,74009,2016-08-02 15:31:55:806
-0.447,-9.389,0.26,1.54,0.816,0.535,-31.5,30.0,12.1,74108,2016-08-02 15:31:55:905
0.853,-11.918,-1.688,0.54,0.447,-0.101,-31.5,30.0,12.1,74209,2016-08-02 15:31:56:006
8.092,-13.276,3.375,0.54,0.447,-0.101,-32.6,30.0,8.2,74309,2016-08-02 15:31:56:106
8.092,-13.276,3.375,-0.682,0.298,1.312,-32.6,30.0,8.2,74409,2016-08-02 15:31:56:206
2.337,-2.285,1.449,-0.682,0.298,1.312,-33.8,31.8,5.9,74509,2016-08-02 15:31:56:306
2.337,-2.285,1.449,1.998,1.177,-0.531,-33.8,31.8,5.9,74609,2016-08-02 15:31:56:406
-2.946,-19.525,-10.259,1.998,1.177,-0.531,-32.4,32.9,9.8,74709,2016-08-02 15:31:56:506
-2.946,-19.525,-10.259,1.998,1.177,-0.531,-32.4,32.9,9.8,74809,2016-08-02 15:31:56:606
0.824,-6.539,6.53,1.778,-3.026,-1.13,-30.8,34.9,13.0,74909,2016-08-02 15:31:56:706
0.824,-6.539,6.53,1.778,-3.026,-1.13,-30.8,34.9,13.0,75011,2016-08-02 15:31:56:808
4.451,-7.312,0.792,1.284,-1.936,-0.618,-30.8,35.0,12.5,75111,2016-08-02 15:31:56:908
-1.125,-12.873,-4.059,1.284,-1.936,-0.618,-30.8,35.0,12.5,75209,2016-08-02 15:31:57:006
-1.125,-12.873,-4.059,1.284,-1.936,-0.618,-33.2,34.3,8.5,75310,2016-08-02 15:31:57:107
7.192,-14.23,2.749,-2.366,0.005,1.084,-33.2,34.3,8.5,75411,2016-08-02 15:31:57:208
7.192,-14.23,2.749,-2.366,0.005,1.084,-35.3,33.4,5.4,75509,2016-08-02 15:31:57:306
2.521,-3.352,0.136,-0.885,1.277,1.238,-35.3,33.4,5.4,75611,2016-08-02 15:31:57:408
2.521,-3.352,0.136,-0.885,1.277,1.238,-33.4,33.4,9.5,75709,2016-08-02 15:31:57:506
-4.181,-19.609,-15.121,-1.343,0.635,0.519,-33.4,33.4,9.5,75810,2016-08-02 15:31:57:607
-4.181,-19.609,-15.121,-1.343,0.635,0.519,-30.9,35.4,12.7,75910,2016-08-02 15:31:57:707
3.594,-4.004,4.983,-1.343,0.635,0.519,-30.9,35.4,12.7,76011,2016-08-02 15:31:57:808
2.932,-6.543,0.294,1.501,-0.38,-1.728,-29.9,36.2,13.0,76110,2016-08-02 15:31:57:907
2.932,-6.543,0.294,1.501,-0.38,-1.728,-29.9,36.2,13.0,76210,2016-08-02 15:31:58:007
-1.738,-13.026,-2.263,0.831,0.132,-0.874,-32.5,36.4,8.6,76310,2016-08-02 15:31:58:107
-1.738,-13.026,-2.263,0.831,0.132,-0.874,-32.5,36.4,8.6,76410,2016-08-02 15:31:58:207
7.257,-14.496,3.491,0.831,0.132,-0.874,-35.0,34.7,6.0,76509,2016-08-02 15:31:58:306
7.257,-14.496,3.491,-1.108,0.379,1.121,-35.0,34.7,6.0,76611,2016-08-02 15:31:58:408
1.563,-4.626,1.905,-1.108,0.379,1.121,-33.5,34.6,8.7,76708,2016-08-02 15:31:58:505
1.563,-4.626,1.905,1.539,2.656,-0.097,-33.5,34.6,8.7,76809,2016-08-02 15:31:58:606
1.056,-19.609,-19.609,1.539,2.656,-0.097,-30.9,34.5,14.2,76911,2016-08-02 15:31:58:708
2.367,-5.279,3.999,-0.648,-1.367,-0.471,-30.9,34.5,14.2,77009,2016-08-02 15:31:58:806
2.367,-5.279,3.999,-0.648,-1.367,-0.471,-28.9,36.1,17.0,77111,2016-08-02 15:31:58:908
0.894,-7.402,-0.06,-0.648,-1.367,-0.471,-28.9,36.1,17.0,77209,2016-08-02 15:31:59:006
0.894,-7.402,-0.06,1.352,-1.487,0.508,-32.3,35.5,12.6,77310,2016-08-02 15:31:59:107
-0.431,-10.297,1.735,1.352,-1.487,0.508,-32.3,35.5,12.6,77409,2016-08-02 15:31:59:206
-0.431,-10.297,1.735,-0.545,0.872,0.442,-34.4,34.4,8.5,77511,2016-08-02 15:31:59:308
1.541,-13.886,-1.155,-0.545,0.872,0.442,-34.4,34.4,8.5,77610,2016-08-02 15:31:59:407
1.541,-13.886,-1.155,-0.545,0.872,0.442,-35.5,34.0,6.9,77712,2016-08-02 15:31:59:509
0.104,-6.788,1.691,-2.024,-0.067,1.225,-35.5,34.0,6.9,77809,2016-08-02 15:31:59:606
2.828,-6.435,-1.86,-2.024,-0.067,1.225,-32.8,34.7,11.2,77909,2016-08-02 15:31:59:706
2.828,-6.435,-1.86,-0.861,-0.434,0.041,-32.8,34.7,11.2,78009,2016-08-02 15:31:59:806
12.3,-18.046,1.91,-0.861,-0.434,0.041,-29.8,36.7,15.2,78111,2016-08-02 15:31:59:908
12.3,-18.046,1.91,0.85,-0.135,-1.159,-29.8,36.7,15.2,78211,2016-08-02 15:32:00:008
0.509,-8.574,-5.907,0.85,-0.135,-1.159,-30.2,36.6,15.0,78309,2016-08-02 15:32:00:106
0.509,-8.574,-5.907,0.85,-0.135,-1.159,-30.2,36.6,15.0,78410,2016-08-02 15:32:00:207
1.371,-10.903,2.19,0.159,0.38,-0.973,-32.8,36.2,9.6,78511,2016-08-02 15:32:00:308
1.371,-10.903,2.19,0.159,0.38,-0.973,-32.8,36.2,9.6,78609,2016-08-02 15:32:00:406
-0.47,-12.585,-4.487,-3.311,-0.517,1.536,-35.6,34.6,5.3,78709,2016-08-02 15:32:00:506
1.396,-8.57,2.273,-3.311,-0.517,1.536,-35.6,34.6,5.3,78811,2016-08-02 15:32:00:608
1.396,-8.57,2.273,-3.311,-0.517,1.536,-34.6,34.6,6.7,78909,2016-08-02 15:32:00:706
1.067,-1.853,-0.834,-0.61,1.779,1.031,-34.6,34.6,6.7,79009,2016-08-02 15:32:00:806
1.067,-1.853,-0.834,-0.61,1.779,1.031,-32.6,35.4,11.2,79109,2016-08-02 15:32:00:906
4.641,-19.609,-2.292,0.181,1.819,-2.158,-32.6,35.4,11.2,79210,2016-08-02 15:32:01:007
4.641,-19.609,-2.292,0.181,1.819,-2.158,-30.7,36.4,13.5,79310,2016-08-02 15:32:01:107
-0.682,-6.509,-7.865,1.357,2.184,0.481,-30.7,36.4,13.5,79412,2016-08-02 15:32:01:209
-0.682,-6.509,-7.865,1.357,2.184,0.481,-30.7,36.4,13.5,79510,2016-08-02 15:32:01:307
1.409,-9.619,3.876,1.357,2.184,0.481,-32.7,35.8,8.8,79610,2016-08-02 15:32:01:407
-2.551,-13.758,-8.244,-0.626,0.814,-0.034,-32.7,35.8,8.8,79712,2016-08-02 15:32:01:509
-2.551,-13.758,-8.244,-0.626,0.814,-0.034,-35.3,34.3,4.3,79811,2016-08-02 15:32:01:608
3.259,-7.128,2.891,-0.968,-1.432,1.737,-35.3,34.3,4.3,79910,2016-08-02 15:32:01:707
3.259,-7.128,2.891,-0.968,-1.432,1.737,-35.5,34.5,3.5,80012,2016-08-02 15:32:01:809
1.961,-2.919,-1.1,-0.968,-1.432,1.737,-35.5,34.5,3.5,80111,2016-08-02 15:32:01:908
1.961,-2.919,-1.1,1.658,0.225,-0.966,-32.7,36.1,8.3,80210,2016-08-02 15:32:02:007
8.502,-17.947,-5.752,1.658,0.225,-0.966,-32.7,36.1,8.3,80313,2016-08-02 15:32:02:110
8.502,-17.947,-5.752,2.173,0.017,-0.861,-30.0,37.6,11.6,80411,2016-08-02 15:32:02:208
-0.497,-10.461,-3.773,2.173,0.017,-0.861,-30.0,37.6,11.6,80510,2016-08-02 15:32:02:307
-0.497,-10.461,-3.773,2.173,0.017,-0.861,-31.1,37.3,9.8,80612,2016-08-02 15:32:02:409
0.822,-10.137,-0.338,0.603,-0.374,-0.571,-31.1,37.3,9.8,80710,2016-08-02 15:32:02:507
-1.355,-16.349,-7.564,0.603,-0.374,-0.571,-33.8,35.9,6.5,80809,2016-08-02 15:32:02:606
-1.355,-16.349,-7.564,-3.003,0.309,1.53,-33.8,35.9,6.5,80913,2016-08-02 15:32:02:710
1.981,-9.638,1.091,-3.003,0.309,1.53,-36.1,34.6,3.7,81009,2016-08-02 15:32:02:806
1.981,-9.638,1.091,-0.753,1.083,1.114,-36.1,34.6,3.7,81111,2016-08-02 15:32:02:908
3.378,-1.361,-0.469,-0.753,1.083,1.114,-34.8,34.7,7.1,81209,2016-08-02 15:32:03:006
3.378,-1.361,-0.469,-0.753,1.083,1.114,-34.8,34.7,7.1,81311,2016-08-02 15:32:03:108
12.412,-12.349,0.49,-0.199,1.664,-0.609,-32.4,36.0,10.6,81410,2016-08-02 15:32:03:207
0.5,-19.609,1.544,-0.199,1.664,-0.609,-32.4,36.0,10.6,81509,2016-08-02 15:32:03:306
0.5,-19.609,1.544,2.03,-2.16,-0.027,-31.7,36.9,12.1,81609,2016-08-02 15:32:03:406
0.918,-10.551,-4.414,2.03,-2.16,-0.027,-31.7,36.9,12.1,81709,2016-08-02 15:32:03:506
0.918,-10.551,-4.414,-0.014,-0.478,-0.075,-34.3,35.8,7.5,81809,2016-08-02 15:32:03:606
-1.066,-15.273,-5.771,-0.014,-0.478,-0.075,-34.3,35.8,7.5,81909,2016-08-02 15:32:03:706
-1.066,-15.273,-5.771,-0.014,-0.478,-0.075,-37.1,33.2,4.0,82011,2016-08-02 15:32:03:808
2.45,-11.386,-0.174,-0.445,-0.185,1.381,-37.1,33.2,4.0,82113,2016-08-02 15:32:03:910
2.45,-11.386,-0.174,-0.445,-0.185,1.381,-36.1,33.7,4.2,82209,2016-08-02 15:32:04:006
3.639,-0.665,0.13,2.271,0.929,-0.653,-36.1,33.7,4.2,82311,2016-08-02 15:32:04:108
3.639,-0.665,0.13,2.271,0.929,-0.653,-33.5,35.8,8.0,82409,2016-08-02 15:32:04:206
12.866,-18.285,-4.556,2.271,0.929,-0.653,-33.5,35.8,8.0,82509,2016-08-02 15:32:04:306
-3.354,-16.835,-0.238,2.441,-3.003,-1.606,-31.2,37.6,11.3,82610,2016-08-02 15:32:04:407
-3.354,-16.835,-0.238,2.441,-3.003,-1.606,-31.2,37.6,11.3,82709,2016-08-02 15:32:04:506
0.953,-9.671,-3.797,0.824,-1.498,-0.679,-32.9,36.8,8.3,82810,2016-08-02 15:32:04:607
0.953,-9.671,-3.797,0.824,-1.498,-0.679,-32.9,36.8,8.3,82913,2016-08-02 15:32:04:710
-1.494,-14.381,-2.577,-2.574,0.191,1.228,-35.5,34.3,4.6,83010,2016-08-02 15:32:04:807
-1.494,-14.381,-2.577,-2.574,0.191,1.228,-35.5,34.3,4.6,83110,2016-08-02 15:32:04:907
3.625,-10.303,-4.533,-2.574,0.191,1.228,-36.9,33.1,2.5,83209,2016-08-02 15:32:05:006
3.706,-1.55,-0.286,-0.952,1.14,0.831,-36.9,33.1,2.5,83310,2016-08-02 15:32:05:107
3.706,-1.55,-0.286,-0.952,1.14,0.831,-34.0,34.5,7.0,83410,2016-08-02 15:32:05:207
6.54,-1.346,-0.53,-1.061,0.214,0.346,-34.0,34.5,7.0,83511,2016-08-02 15:32:05:308
6.54,-1.346,-0.53,-1.061,0.214,0.346,-31.3,37.0,10.5,83611,2016-08-02 15:32:05:408
3.471,-11.14,2.02,-1.061,0.214,0.346,-31.3,37.0,10.5,83710,2016-08-02 15:32:05:507
3.471,-11.14,2.02,2.241,-1.729,-0.731,-31.9,37.2,9.4,83810,2016-08-02 15:32:05:607
2.913,-8.781,-3.298,2.241,-1.729,-0.731,-31.9,37.2,9.4,83910,2016-08-02 15:32:05:707
2.913,-8.781,-3.298,0.601,-1.427,-0.352,-34.5,35.6,5.2,84009,2016-08-02 15:32:05:806
0.637,-12.401,-2.069,0.601,-1.427,-0.352,-34.5,35.6,5.2,84110,2016-08-02 15:32:05:907
0.637,-12.401,-2.069,0.601,-1.427,-0.352,-37.3,33.5,3.0,84209,2016-08-02 15:32:06:006
2.093,-11.946,-0.28,-0.255,1.032,1.107,-37.3,33.5,3.0,84311,2016-08-02 15:32:06:108
5.098,-1.346,0.437,-0.255,1.032,1.107,-35.1,34.1,7.4,84410,2016-08-02 15:32:06:207
5.098,-1.346,0.437,1.986,1.931,-0.249,-35.1,34.1,7.4,84511,2016-08-02 15:32:06:308
7.633,-5.024,-1.11,1.986,1.931,-0.249,-35.1,34.1,7.4,84609,2016-08-02 15:32:06:406
7.633,-5.024,-1.11,1.183,-2.507,-0.807,-32.4,36.4,10.0,84709,2016-08-02 15:32:06:506
3.149,-15.864,0.799,1.183,-2.507,-0.807,-32.4,36.4,10.0,84810,2016-08-02 15:32:06:607
3.149,-15.864,0.799,1.183,-2.507,-0.807,-31.0,37.3,9.5,84914,2016-08-02 15:32:06:711
0.208,-10.114,-1.808,0.944,-2.421,-0.818,-31.0,37.3,9.5,85011,2016-08-02 15:32:06:808
0.208,-10.114,-1.808,0.944,-2.421,-0.818,-33.7,36.0,4.3,85111,2016-08-02 15:32:06:908
-0.693,-14.301,-1.183,-1.866,0.61,0.822,-33.7,36.0,4.3,85210,2016-08-02 15:32:07:007
4.278,-13.633,-3.84,-1.866,0.61,0.822,-36.8,33.4,1.1,85310,2016-08-02 15:32:07:107
4.278,-13.633,-3.84,-1.866,0.61,0.822,-36.8,33.4,1.1,85411,2016-08-02 15:32:07:208
3.784,-1.047,0.345,-1.687,-0.143,1.086,-35.6,34.0,2.2,85511,2016-08-02 15:32:07:308
3.784,-1.047,0.345,-1.687,-0.143,1.086,-35.6,34.0,2.2,85610,2016-08-02 15:32:07:407
7.834,-2.146,-1.616,-1.34,0.743,1.289,-32.6,36.4,6.2,85709,2016-08-02 15:32:07:506
7.834,-2.146,-1.616,-1.34,0.743,1.289,-32.6,36.4,6.2,85810,2016-08-02 15:32:07:607
5.784,-14.893,0.994,2.272,-1.243,-0.505,-30.3,38.5,8.4,85910,2016-08-02 15:32:07:707
5.784,-14.893,0.994,2.272,-1.243,-0.505,-30.3,38.5,8.4,86011,2016-08-02 15:32:07:808
2.268,-9.012,-2.837,2.272,-1.243,-0.505,-32.9,36.8,4.7,86111,2016-08-02 15:32:07:908
-0.032,-13.709,-1.547,0.524,-0.052,-0.536,-32.9,36.8,4.7,86210,2016-08-02 15:32:08:007
-0.032,-13.709,-1.547,0.524,-0.052,-0.536,-36.1,33.6,0.4,86310,2016-08-02 15:32:08:107
3.232,-12.676,-4.882,-0.035,0.773,1.421,-36.1,33.6,0.4,86409,2016-08-02 15:32:08:206
3.232,-12.676,-4.882,-0.035,0.773,1.421,-36.1,33.4,-0.2,86510,2016-08-02 15:32:08:307
3.925,-1.405,-0.37,-0.035,0.773,1.421,-36.1,33.4,-0.2,86611,2016-08-02 15:32:08:408
3.925,-1.405,-0.37,2.34,1.704,-0.609,-32.8,35.5,5.3,86711,2016-08-02 15:32:08:508
5.988,-0.223,-0.354,2.34,1.704,-0.609,-32.8,35.5,5.3,86810,2016-08-02 15:32:08:607
5.988,-0.223,-0.354,1.05,-2.012,-0.629,-30.0,38.1,8.5,86910,2016-08-02 15:32:08:707
5.501,-16.436,2.022,1.05,-2.012,-0.629,-30.0,38.1,8.5,87009,2016-08-02 15:32:08:806
3.038,-8.842,-0.997,1.515,-3.163,-0.311,-32.2,37.1,6.0,87110,2016-08-02 15:32:08:907
3.038,-8.842,-0.997,1.515,-3.163,-0.311,-32.2,37.1,6.0,87209,2016-08-02 15:32:09:006
1.097,-13.185,-4.175,1.515,-3.163,-0.311,-35.4,34.6,1.7,87310,2016-08-02 15:32:09:107
1.097,-13.185,-4.175,-2.641,0.005,0.816,-35.4,34.6,1.7,87409,2016-08-02 15:32:09:206
7.879,-14.001,-2.86,-2.641,0.005,0.816,-37.6,32.6,0.2,87510,2016-08-02 15:32:09:307
7.879,-14.001,-2.86,-1.218,0.995,1.206,-37.6,32.6,0.2,87610,2016-08-02 15:32:09:407
4.313,0.585,0.3,-1.218,0.995,1.206,-34.7,34.9,4.2,87711,2016-08-02 15:32:09:508
4.313,0.585,0.3,-1.218,0.995,1.206,-34.7,34.9,4.2,87811,2016-08-02 15:32:09:608
5.11,0.611,-1.775,-1.006,-0.664,0.792,-31.3,37.8,7.4,87910,2016-08-02 15:32:09:707
2.474,-19.249,0.681,-1.006,-0.664,0.792,-31.3,37.8,7.4,88011,2016-08-02 15:32:09:808
2.474,-19.249,0.681,2.151,-0.944,0.296,-31.2,38.1,7.2,88110,2016-08-02 15:32:09:907
1.585,-9.734,-1.549,2.151,-0.944,0.296,-31.2,38.1,7.2,88210,2016-08-02 15:32:10:007
1.585,-9.734,-1.549,0.593,-1.28,-0.643,-34.0,36.5,1.5,88310,2016-08-02 15:32:10:107
0.521,-12.905,-0.673,0.593,-1.28,-0.643,-34.0,36.5,1.5,88411,2016-08-02 15:32:10:208
0.521,-12.905,-0.673,0.593,-1.28,-0.643,-37.2,33.4,-2.3,88511,2016-08-02 15:32:10:308
9.397,-11.396,-1.857,-1.081,1.214,1.05,-37.2,33.4,-2.3,88610,2016-08-02 15:32:10:407
9.397,-11.396,-1.857,-1.081,1.214,1.05,-36.8,33.8,-0.7,88709,2016-08-02 15:32:10:506
4.123,-1.113,0.895,1.699,2.492,0.164,-36.8,33.8,-0.7,88811,2016-08-02 15:32:10:608
1.106,-4.729,-2.393,1.699,2.492,0.164,-34.4,36.6,2.2,88910,2016-08-02 15:32:10:707
1.106,-4.729,-2.393,1.699,2.492,0.164,-34.4,36.6,2.2,89010,2016-08-02 15:32:10:807
3.709,-7.514,2.22,0.201,-1.777,-0.086,-34.4,36.6,2.2,89110,2016-08-02 15:32:10:907
3.709,-7.514,2.22,0.201,-1.777,-0.086,-31.4,39.4,4.1,89210,2016-08-02 15:32:11:007
5.509,-8.754,-0.317,1.323,-1.484,0.27,-31.4,39.4,4.1,89311,2016-08-02 15:32:11:108
5.509,-8.754,-0.317,1.323,-1.484,0.27,-32.5,38.5,-0.2,89408,2016-08-02 15:32:11:205
3.609,-11.618,-0.28,-0.702,-0.418,-0.049,-32.5,38.5,-0.2,89510,2016-08-02 15:32:11:307
3.609,-11.618,-0.28,-0.702,-0.418,-0.049,-36.2,34.7,-2.8,89611,2016-08-02 15:32:11:408
8.981,-14.489,1.596,-0.702,-0.418,-0.049,-36.2,34.7,-2.8,89710,2016-08-02 15:32:11:507
3.976,-1.046,1.891,-1.541,-0.958,1.14,-37.7,32.9,-4.7,89811,2016-08-02 15:32:11:608
3.976,-1.046,1.891,-1.541,-0.958,1.14,-37.7,32.9,-4.7,89911,2016-08-02 15:32:11:708
-3.032,-17.374,-10.382,-0.379,0.607,0.367,-35.2,34.9,-0.4,90010,2016-08-02 15:32:11:807
-3.032,-17.374,-10.382,-0.379,0.607,0.367,-35.2,34.9,-0.4,90110,2016-08-02 15:32:11:907
-0.426,-6.823,5.65,-0.379,0.607,0.367,-31.8,38.7,2.8,90211,2016-08-02 15:32:12:008
-0.426,-6.823,5.65,1.038,0.971,-1.969,-31.8,38.7,2.8,90311,2016-08-02 15:32:12:108
2.442,-7.681,-1.801,1.038,0.971,-1.969,-31.4,39.2,3.3,90410,2016-08-02 15:32:12:207
2.442,-7.681,-1.801,-0.09,-1.744,0.275,-31.4,39.2,3.3,90510,2016-08-02 15:32:12:307
3.323,-12.624,2.639,-0.09,-1.744,0.275,-33.1,38.2,0.9,90609,2016-08-02 15:32:12:406
2.449,-12.11,-0.965,-0.952,0.239,-0.774,-33.1,38.2,0.9,90710,2016-08-02 15:32:12:507
2.449,-12.11,-0.965,-0.952,0.239,-0.774,-35.5,36.2,-1.5,90809,2016-08-02 15:32:12:606
6.592,-6.639,3.601,-0.952,0.239,-0.774,-35.5,36.2,-1.5,90909,2016-08-02 15:32:12:706
6.592,-6.639,3.601,-1.297,-1.326,0.796,-36.5,35.3,-1.7,91012,2016-08-02 15:32:12:809
3.346,-3.699,0.681,-1.297,-1.326,0.796,-36.5,35.3,-1.7,91109,2016-08-02 15:32:12:906
3.346,-3.699,0.681,1.137,0.412,-0.686,-35.0,36.2,2.0,91209,2016-08-02 15:32:13:006
-0.864,-9.653,-5.634,1.137,0.412,-0.686,-35.0,36.2,2.0,91309,2016-08-02 15:32:13:106
-0.864,-9.653,-5.634,1.137,0.412,-0.686,-32.9,38.7,5.3,91410,2016-08-02 15:32:13:207
0.329,-5.482,6.311,0.679,-1.554,-0.682,-32.9,38.7,5.3,91509,2016-08-02 15:32:13:306
5.307,-7.912,1.701,0.679,-1.554,-0.682,-32.3,39.2,4.1,91609,2016-08-02 15:32:13:406
5.307,-7.912,1.701,1.344,-1.644,-0.687,-32.3,39.2,4.1,91711,2016-08-02 15:32:13:508
-0.754,-11.832,-1.854,1.344,-1.644,-0.687,-34.6,37.2,-0.7,91810,2016-08-02 15:32:13:607
-0.754,-11.832,-1.854,-1.828,0.259,0.895,-34.6,37.2,-0.7,91909,2016-08-02 15:32:13:706
6.307,-13.949,2.618,-1.828,0.259,0.895,-37.3,33.6,-3.5,92009,2016-08-02 15:32:13:806
6.307,-13.949,2.618,-1.828,0.259,0.895,-37.3,33.6,-3.5,92111,2016-08-02 15:32:13:908
1.161,-5.792,0.515,-1.216,0.231,1.268,-36.4,33.8,-0.4,92209,2016-08-02 15:32:14:006
1.161,-5.792,0.515,-1.216,0.231,1.268,-36.4,33.8,-0.4,92309,2016-08-02 15:32:14:106
-9.199,-19.609,-16.172,-1.39,0.461,1.311,-33.6,36.4,4.9,92410,2016-08-02 15:32:14:207
0.056,-2.833,9.781,-1.39,0.461,1.311,-33.6,36.4,4.9,92509,2016-08-02 15:32:14:306
0.056,-2.833,9.781,-1.39,0.461,1.311,-31.5,38.7,7.7,92609,2016-08-02 15:32:14:406
6.26,-5.947,0.204,2.542,-1.257,0.875,-31.5,38.7,7.7,92711,2016-08-02 15:32:14:508
6.26,-5.947,0.204,2.542,-1.257,0.875,-33.4,37.4,3.8,92809,2016-08-02 15:32:14:606
0.046,-11.669,-0.477,0.813,-1.142,-0.749,-33.4,37.4,3.8,92911,2016-08-02 15:32:14:708
0.046,-11.669,-0.477,0.813,-1.142,-0.749,-36.4,34.6,0.1,93009,2016-08-02 15:32:14:806
3.5,-14.125,1.82,-2.099,1.164,0.949,-36.4,34.6,0.1,93109,2016-08-02 15:32:14:906
3.5,-14.125,1.82,-2.099,1.164,0.949,-36.8,34.6,-0.9,93210,2016-08-02 15:32:15:007
-0.127,-6.105,1.802,-2.099,1.164,0.949,-36.8,34.6,-0.9,93311,2016-08-02 15:32:15:108
4.241,-11.915,-10.365,0.668,2.556,-0.229,-34.4,35.8,4.4,93409,2016-08-02 15:32:15:206
4.241,-11.915,-10.365,0.668,2.556,-0.229,-34.4,35.8,4.4,93511,2016-08-02 15:32:15:308
-2.719,-8.465,4.484,-0.588,-0.441,-0.955,-32.0,38.9,6.8,93611,2016-08-02 15:32:15:408
-2.719,-8.465,4.484,-0.588,-0.441,-0.955,-32.0,38.9,6.8,93709,2016-08-02 15:32:15:506
3.898,-7.285,-0.886,-0.588,-0.441,-0.955,-32.2,38.3,6.4,93809,2016-08-02 15:32:15:606
3.898,-7.285,-0.886,1.768,-1.203,-0.006,-32.2,38.3,6.4,93910,2016-08-02 15:32:15:707
0.277,-9.716,0.379,1.768,-1.203,-0.006,-34.1,37.2,2.9,94009,2016-08-02 15:32:15:806
0.277,-9.716,0.379,-0.618,-0.288,-0.177,-34.1,37.2,2.9,94111,2016-08-02 15:32:15:908
-0.426,-12.602,-5.027,-0.618,-0.288,-0.177,-35.8,35.3,0.5,94212,2016-08-02 15:32:16:009
-1.599,-8.744,1.991,-1.516,-3.025,1.236,-35.8,35.3,0.5,94309,2016-08-02 15:32:16:106
-1.599,-8.744,1.991,-1.516,-3.025,1.236,-35.8,35.3,0.5,94410,2016-08-02 15:32:16:207
1.316,-3.2,0.961,-1.516,-3.025,1.236,-34.2,35.8,4.3,94510,2016-08-02 15:32:16:307
1.316,-3.2,0.961,1.212,-0.064,-1.695,-34.2,35.8,4.3,94609,2016-08-02 15:32:16:406
10.063,-17.642,0.342,1.212,-0.064,-1.695,-31.2,37.7,8.3,94710,2016-08-02 15:32:16:507
10.063,-17.642,0.342,2.032,-2.201,-0.931,-31.2,37.7,8.3,94810,2016-08-02 15:32:16:607
-1.547,-11.814,2.182,2.032,-2.201,-0.931,-29.4,38.9,10.0,94909,2016-08-02 15:32:16:706
-1.547,-11.814,2.182,2.032,-2.201,-0.931,-29.4,38.9,10.0,95009,2016-08-02 15:32:16:806
0.84,-9.391,1.973,-0.073,-0.66,-1.04,-31.4,38.1,6.5,95109,2016-08-02 15:32:16:906
1.331,-15.167,-6.541,-0.073,-0.66,-1.04,-31.4,38.1,6.5,95209,2016-08-02 15:32:17:006
1.331,-15.167,-6.541,-3.342,0.786,1.589,-34.7,35.4,5.0,95309,2016-08-02 15:32:17:106
0.778,-9.592,1.39,-3.342,0.786,1.589,-34.7,35.4,5.0,95409,2016-08-02 15:32:17:206
0.778,-9.592,1.39,-0.966,1.405,1.032,-34.9,34.6,6.4,95509,2016-08-02 15:32:17:306
3.662,-1.444,0.491,-0.966,1.405,1.032,-34.9,34.6,6.4,95610,2016-08-02 15:32:17:407
3.662,-1.444,0.491,-0.966,1.405,1.032,-31.9,34.9,12.2,95711,2016-08-02 15:32:17:508
10.766,-4.976,1.135,-0.814,-0.056,-0.283,-31.9,34.9,12.2,95809,2016-08-02 15:32:17:606
10.766,-4.976,1.135,-0.814,-0.056,-0.283,-28.7,37.0,15.2,95910,2016-08-02 15:32:17:707
2.283,-19.609,4.673,2.547,-2.976,-0.464,-28.7,37.0,15.2,96010,2016-08-02 15:32:17:807
2.283,-19.609,4.673,2.547,-2.976,-0.464,-29.6,37.6,13.7,96109,2016-08-02 15:32:17:906
1.338,-9.088,-1.135,2.547,-2.976,-0.464,-29.6,37.6,13.7,96210,2016-08-02 15:32:18:007
4.717,-10.978,-4.415,-0.193,-0.75,-0.447,-30.2,37.7,11.3,96310,2016-08-02 15:32:18:107
4.717,-10.978,-4.415,-0.193,-0.75,-0.447,-30.2,37.7,11.3,96409,2016-08-02 15:32:18:206
6.619,-9.697,-6.097,-1.261,-0.72,1.153,-30.7,37.5,10.8,96509,2016-08-02 15:32:18:306
6.619,-9.697,-6.097,-1.261,-0.72,1.153,-30.7,37.5,10.8,96609,2016-08-02 15:32:18:406
5.015,-4.134,2.143,2.27,1.085,0.229,-27.8,34.7,17.0,96710,2016-08-02 15:32:18:507
5.015,-4.134,2.143,2.27,1.085,0.229,-27.8,34.7,17.0,96809,2016-08-02 15:32:18:606
7.371,-1.868,-2.599,2.27,1.085,0.229,-26.6,32.3,23.3,96911,2016-08-02 15:32:18:708
1.323,-11.833,2.833,0.361,-1.279,-0.038,-26.6,32.3,23.3,97009,2016-08-02 15:32:18:806
1.323,-11.833,2.833,0.361,-1.279,-0.038,-28.3,31.2,24.5,97111,2016-08-02 15:32:18:908
-0.491,-8.947,-0.048,0.885,-2.317,-0.41,-28.3,31.2,24.5,97209,2016-08-02 15:32:19:006
-0.491,-8.947,-0.048,0.885,-2.317,-0.41,-28.6,35.8,19.1,97335,2016-08-02 15:32:19:132
-2.461,-12.266,-1.416,0.885,-2.317,-0.41,-28.6,35.8,19.1,97409,2016-08-02 15:32:19:206
-2.461,-12.266,-1.416,-0.926,-0.479,0.541,-27.9,38.3,16.4,97509,2016-08-02 15:32:19:306
8.75,-14.775,-0.293,-0.926,-0.479,0.541,-27.9,38.3,16.4,97609,2016-08-02 15:32:19:406
8.75,-14.775,-0.293,-1.967,-2.043,0.636,-24.0,38.3,19.1,97709,2016-08-02 15:32:19:506
3.505,-2.602,-0.683,-1.967,-2.043,0.636,-24.0,38.3,19.1,97810,2016-08-02 15:32:19:607
1.104,-9.272,-4.797,-0.796,1.146,0.519,-20.3,34.6,26.2,97910,2016-08-02 15:32:19:707
1.104,-9.272,-4.797,-0.796,1.146,0.519,-20.3,34.6,26.2,98010,2016-08-02 15:32:19:807
0.481,-12.789,2.887,-0.796,1.146,0.519,-17.0,32.6,31.0,98111,2016-08-02 15:32:19:908
0.481,-12.789,2.887,1.172,-0.745,-1.764,-17.0,32.6,31.0,98209,2016-08-02 15:32:20:006
4.152,-8.868,1.64,1.172,-0.745,-1.764,-16.6,34.6,29.1,98311,2016-08-02 15:32:20:108
4.152,-8.868,1.64,1.114,-0.59,-0.982,-16.6,34.6,29.1,98409,2016-08-02 15:32:20:206
2.711,-13.454,0.45,1.114,-0.59,-0.982,-14.4,38.9,24.2,98509,2016-08-02 15:32:20:306
2.711,-13.454,0.45,1.114,-0.59,-0.982,-14.4,38.9,24.2,98609,2016-08-02 15:32:20:406
6.086,-15.945,3.226,-3.055,-1.049,1.017,-12.9,41.4,22.0,98709,2016-08-02 15:32:20:506
2.142,-3.061,0.6,-3.055,-1.049,1.017,-12.9,41.4,22.0,98811,2016-08-02 15:32:20:608
2.142,-3.061,0.6,0.022,2.034,0.487,-12.9,41.4,22.0,98909,2016-08-02 15:32:20:706
-1.753,-17.9,-8.921,0.022,2.034,0.487,-8.7,38.2,27.1,99010,2016-08-02 15:32:20:807
-1.753,-17.9,-8.921,-0.018,0.904,-1.195,-8.7,38.2,27.1,99110,2016-08-02 15:32:20:907
1.575,-4.289,7.1,-0.018,0.904,-1.195,-6.7,33.7,33.3,99210,2016-08-02 15:32:21:007
1.575,-4.289,7.1,-0.018,0.904,-1.195,-6.7,33.7,33.3,99311,2016-08-02 15:32:21:108
5.138,-8.481,1.827,1.38,0.639,0.421,-7.3,32.8,34.0,99411,2016-08-02 15:32:21:208
5.138,-8.481,1.827,1.38,0.639,0.421,-7.3,32.8,34.0,99510,2016-08-02 15:32:21:307
0.472,-13.44,2.701,-0.125,-0.926,0.196,-9.7,37.6,28.1,99610,2016-08-02 15:32:21:407
7.277,-13.361,1.328,-0.125,-0.926,0.196,-9.7,37.6,28.1,99712,2016-08-02 15:32:21:509
7.277,-13.361,1.328,-0.125,-0.926,0.196,-10.9,41.2,23.3,99810,2016-08-02 15:32:21:607
3.607,-2.45,1.298,-2.192,-2.158,0.902,-10.9,41.2,23.3,99910,2016-08-02 15:32:21:707
3.607,-2.45,1.298,-2.192,-2.158,0.902,-8.3,39.2,25.7,100012,2016-08-02 15:32:21:809
-2.019,-15.274,-9.749,-0.719,0.383,0.88,-8.3,39.2,25.7,100109,2016-08-02 15:32:21:906
-2.019,-15.274,-9.749,-0.719,0.383,0.88,-7.1,34.7,31.7,100209,2016-08-02 15:32:22:006
1.967,-3.822,5.768,1.14,-0.155,-1.555,-7.1,34.7,31.7,100313,2016-08-02 15:32:22:110
1.967,-3.822,5.768,1.14,-0.155,-1.555,-5.8,32.5,34.9,100411,2016-08-02 15:32:22:208
3.334,-8.15,2.193,1.14,-0.155,-1.555,-5.8,32.5,34.9,100510,2016-08-02 15:32:22:307
3.334,-8.15,2.193,0.329,0.416,-1.014,-8.0,37.0,30.5,100612,2016-08-02 15:32:22:409
-0.28,-12.1,-2.671,0.329,0.416,-1.014,-8.0,37.0,30.5,100710,2016-08-02 15:32:22:507
5.383,-14.963,3.911,-3.121,-0.042,1.641,-8.5,41.2,24.6,100810,2016-08-02 15:32:22:607
5.383,-14.963,3.911,-3.121,-0.042,1.641,-8.5,41.2,24.6,100913,2016-08-02 15:32:22:710
0.536,-5.148,1.22,-3.121,-0.042,1.641,-7.9,42.2,22.9,101012,2016-08-02 15:32:22:809
0.536,-5.148,1.22,-0.675,1.578,0.862,-7.9,42.2,22.9,101109,2016-08-02 15:32:22:906
-7.235,-19.609,-15.373,-0.675,1.578,0.862,-4.9,37.7,28.1,101211,2016-08-02 15:32:23:008
-7.235,-19.609,-15.373,0.143,1.617,-1.243,-4.9,37.7,28.1,101310,2016-08-02 15:32:23:107
1.981,-4.405,4.447,0.143,1.617,-1.243,-3.6,32.8,33.8,101411,2016-08-02 15:32:23:208
1.406,-7.421,2.104,1.026,0.914,0.525,-3.6,32.8,33.8,101514,2016-08-02 15:32:23:311
1.406,-7.421,2.104,1.026,0.914,0.525,-5.9,33.4,32.4,101611,2016-08-02 15:32:23:408
-0.681,-12.051,-2.373,1.026,0.914,0.525,-5.9,33.4,32.4,101710,2016-08-02 15:32:23:507
-0.681,-12.051,-2.373,-0.171,0.812,-0.061,-8.8,37.8,26.8,101814,2016-08-02 15:32:23:611
4.232,-13.945,3.663,-0.171,0.812,-0.061,-8.8,37.8,26.8,101911,2016-08-02 15:32:23:708
4.232,-13.945,3.663,-0.625,-1.466,1.649,-10.7,41.5,22.3,102010,2016-08-02 15:32:23:807
-1.276,-5.088,1.219,-0.625,-1.466,1.649,-10.7,41.5,22.3,102113,2016-08-02 15:32:23:910
-1.276,-5.088,1.219,-0.625,-1.466,1.649,-8.6,38.4,26.3,102211,2016-08-02 15:32:24:008
1.377,-19.498,-18.77,2.951,0.2,-0.924,-8.6,38.4,26.3,102311,2016-08-02 15:32:24:108
1.247,-11.649,3.114,2.951,0.2,-0.924,-6.6,34.2,32.1,102409,2016-08-02 15:32:24:206
1.247,-11.649,3.114,1.485,-2.882,-0.586,-6.6,34.2,32.1,102510,2016-08-02 15:32:24:307
0.66,-7.271,-1.711,1.485,-2.882,-0.586,-7.0,32.5,34.4,102611,2016-08-02 15:32:24:408
0.66,-7.271,-1.711,1.461,-0.864,-0.839,-7.0,32.5,34.4,102714,2016-08-02 15:32:24:511
-0.095,-11.689,0.594,1.461,-0.864,-0.839,-11.0,36.8,28.9,102811,2016-08-02 15:32:24:608
-0.095,-11.689,0.594,1.461,-0.864,-0.839,-11.0,36.8,28.9,102911,2016-08-02 15:32:24:708
2.135,-12.735,-0.114,-2.96,0.072,1.505,-14.3,40.1,23.0,103009,2016-08-02 15:32:24:806
2.135,-12.735,-0.114,-2.96,0.072,1.505,-14.3,40.1,23.0,103110,2016-08-02 15:32:24:907
-1.743,-6.239,1.171,-0.781,0.919,0.978,-14.3,40.1,23.0,103211,2016-08-02 15:32:25:008
-1.743,-6.239,1.171,-0.781,0.919,0.978,-11.5,39.7,24.4,103313,2016-08-02 15:32:25:110
2.791,-11.285,-7.151,-0.781,0.919,0.978,-11.5,39.7,24.4,103411,2016-08-02 15:32:25:208
1.266,-6.324,4.817,-0.597,0.636,-0.269,-8.3,35.0,30.8,103511,2016-08-02 15:32:25:308
1.266,-6.324,4.817,-0.597,0.636,-0.269,-8.3,35.0,30.8,103610,2016-08-02 15:32:25:407
-0.712,-7.451,-0.888,1.44,-1.373,-0.17,-6.0,32.9,34.4,103710,2016-08-02 15:32:25:507
-0.712,-7.451,-0.888,1.44,-1.373,-0.17,-6.0,32.9,34.4,103810,2016-08-02 15:32:25:607
-0.676,-10.165,0.84,0.474,-0.083,-0.337,-9.7,36.7,30.6,103911,2016-08-02 15:32:25:708
-0.676,-10.165,0.84,0.474,-0.083,-0.337,-9.7,36.7,30.6,104011,2016-08-02 15:32:25:808
-0.689,-12.544,-1.539,0.474,-0.083,-0.337,-11.5,41.1,24.9,104111,2016-08-02 15:32:25:908
-0.689,-12.544,-1.539,-0.735,0.483,1.511,-11.5,41.1,24.9,104210,2016-08-02 15:32:26:007
-2.383,-10.971,1.331,-0.735,0.483,1.511,-11.0,41.7,23.8,104309,2016-08-02 15:32:26:106
1.093,-4.392,-0.123,1.764,1.659,-0.093,-11.0,41.7,23.8,104410,2016-08-02 15:32:26:207
1.093,-4.392,-0.123,1.764,1.659,-0.093,-8.3,36.7,29.3,104509,2016-08-02 15:32:26:306
9.19,-12.738,-1.169,1.764,1.659,-0.093,-8.3,36.7,29.3,104611,2016-08-02 15:32:26:408
9.19,-12.738,-1.169,1.045,-1.047,-0.583,-6.2,33.0,34.8,104710,2016-08-02 15:32:26:507
-4.777,-10.143,-5.45,1.045,-1.047,-0.583,-6.2,33.0,34.8,104810,2016-08-02 15:32:26:607
-4.777,-10.143,-5.45,1.436,-2.007,-0.01,-7.6,33.6,33.9,104911,2016-08-02 15:32:26:708
0.18,-10.164,2.095,1.436,-2.007,-0.01,-7.6,33.6,33.9,105011,2016-08-02 15:32:26:808
0.18,-10.164,2.095,1.436,-2.007,-0.01,-9.1,38.8,28.1,105109,2016-08-02 15:32:26:906
-1.812,-14.714,-8.381,0.173,-0.453,-0.144,-9.1,38.8,28.1,105209,2016-08-02 15:32:27:006
7.42,-11.152,-2.474,0.173,-0.453,-0.144,-10.3,42.4,23.3,105311,2016-08-02 15:32:27:108
7.42,-11.152,-2.474,-2.303,-2.892,0.64,-10.3,42.4,23.3,105410,2016-08-02 15:32:27:207
4.764,-2.291,0.328,-2.303,-2.892,0.64,-7.9,40.3,25.6,105509,2016-08-02 15:32:27:306
4.764,-2.291,0.328,0.027,0.848,-0.215,-7.9,40.3,25.6,105611,2016-08-02 15:32:27:408
5.219,-1.55,-1.237,0.027,0.848,-0.215,-6.5,35.6,31.7,105710,2016-08-02 15:32:27:507
5.219,-1.55,-1.237,0.027,0.848,-0.215,-6.5,35.6,31.7,105809,2016-08-02 15:32:27:606
4.411,-9.556,-0.148,1.832,0.13,-1.216,-6.0,32.3,35.2,105910,2016-08-02 15:32:27:707
4.411,-9.556,-0.148,1.832,0.13,-1.216,-6.0,32.3,35.2,106009,2016-08-02 15:32:27:806
5.803,-8.215,-3.929,0.079,0.616,-1.146,-9.7,35.5,31.6,106111,2016-08-02 15:32:27:908
0.272,-12.568,-3.33,0.079,0.616,-1.146,-9.7,35.5,31.6,106210,2016-08-02 15:32:28:007
0.272,-12.568,-3.33,0.079,0.616,-1.146,-11.7,38.8,25.7,106310,2016-08-02 15:32:28:107
8.274,-11.251,-3.56,-2.705,-0.277,1.902,-11.7,38.8,25.7,106411,2016-08-02 15:32:28:208
8.274,-11.251,-3.56,-2.705,-0.277,1.902,-11.0,39.5,24.3,106511,2016-08-02 15:32:28:308
4.025,-1.935,0.906,-0.762,2.395,0.523,-11.0,39.5,24.3,106609,2016-08-02 15:32:28:406
4.025,-1.935,0.906,-0.762,2.395,0.523,-7.9,35.7,29.2,106711,2016-08-02 15:32:28:508
1.82,-5.587,-2.498,-0.306,0.297,-0.646,-7.9,35.7,29.2,106811,2016-08-02 15:32:28:608
1.82,-5.587,-2.498,-0.306,0.297,-0.646,-6.0,32.4,34.2,106910,2016-08-02 15:32:28:707
4.184,-5.966,4.45,-0.306,0.297,-0.646,-6.0,32.4,34.2,107011,2016-08-02 15:32:28:808
3.265,-8.426,-0.622,1.443,-2.446,-0.689,-7.8,32.6,34.6,107110,2016-08-02 15:32:28:907
3.265,-8.426,-0.622,1.443,-2.446,-0.689,-7.8,32.6,34.6,107210,2016-08-02 15:32:29:007
-0.102,-9.568,1.315,0.482,-0.278,-0.509,-10.1,36.7,29.8,107311,2016-08-02 15:32:29:108
-0.102,-9.568,1.315,0.482,-0.278,-0.509,-10.1,36.7,29.8,107411,2016-08-02 15:32:29:208
-1.104,-12.945,-1.605,0.482,-0.278,-0.509,-12.2,41.5,23.5,107511,2016-08-02 15:32:29:308
-1.104,-12.945,-1.605,-2.326,0.599,1.549,-12.2,41.5,23.5,107609,2016-08-02 15:32:29:406
-1.278,-11.363,-1.103,-2.326,0.599,1.549,-11.3,41.3,24.0,107709,2016-08-02 15:32:29:506
-1.278,-11.363,-1.103,-0.761,0.408,0.876,-11.3,41.3,24.0,107811,2016-08-02 15:32:29:608
1.069,-6.456,-3.547,-0.761,0.408,0.876,-7.6,36.6,30.4,107912,2016-08-02 15:32:29:709
3.718,-8.45,-4.779,-0.44,0.304,0.232,-7.6,36.6,30.4,108010,2016-08-02 15:32:29:807
3.718,-8.45,-4.779,-0.44,0.304,0.232,-7.6,36.6,30.4,108110,2016-08-02 15:32:29:907
3.038,-11.434,1.981,-0.44,0.304,0.232,-4.6,32.8,36.4,108211,2016-08-02 15:32:30:008
3.038,-11.434,1.981,1.372,-1.242,-1.484,-4.6,32.8,36.4,108311,2016-08-02 15:32:30:108
5.606,-8.199,-2.938,1.372,-1.242,-1.484,-5.3,34.9,34.7,108410,2016-08-02 15:32:30:207
5.606,-8.199,-2.938,0.934,-0.727,-0.527,-5.3,34.9,34.7,108509,2016-08-02 15:32:30:306
2.542,-13.703,-3.827,0.934,-0.727,-0.527,-6.2,39.9,29.0,108609,2016-08-02 15:32:30:406
2.542,-13.703,-3.827,0.934,-0.727,-0.527,-6.2,39.9,29.0,108710,2016-08-02 15:32:30:507
6.399,-12.045,2.739,-2.37,0.3,1.052,-6.1,44.0,23.3,108811,2016-08-02 15:32:30:608
-0.099,-4.654,0.395,-2.37,0.3,1.052,-6.1,44.0,23.3,108911,2016-08-02 15:32:30:708
-0.099,-4.654,0.395,-0.535,1.069,0.395,-2.2,41.2,25.2,109011,2016-08-02 15:32:30:808
-0.823,-15.794,-10.814,-0.535,1.069,0.395,-2.2,41.2,25.2,109110,2016-08-02 15:32:30:907
-0.823,-15.794,-10.814,-0.749,0.666,-0.351,0.2,34.6,31.8,109209,2016-08-02 15:32:31:006
6.589,-1.58,1.65,-0.749,0.666,-0.351,0.2,34.6,31.8,109311,2016-08-02 15:32:31:108
6.589,-1.58,1.65,-0.749,0.666,-0.351,0.6,29.3,36.2,109411,2016-08-02 15:32:31:208
0.681,-8.358,-1.525,1.164,-1.993,-0.172,0.6,29.3,36.2,109510,2016-08-02 15:32:31:307
0.681,-8.358,-1.525,1.164,-1.993,-0.172,-1.6,31.4,34.3,109609,2016-08-02 15:32:31:406
2.266,-9.038,0.886,0.832,-0.822,-0.699,-1.6,31.4,34.3,109710,2016-08-02 15:32:31:507
-0.235,-15.003,-3.247,0.832,-0.822,-0.699,-3.1,37.2,27.5,109810,2016-08-02 15:32:31:607
-0.235,-15.003,-3.247,0.832,-0.822,-0.699,-3.1,37.2,27.5,109911,2016-08-02 15:32:31:708
3.008,-9.474,-1.619,-2.043,0.774,0.945,-4.4,42.5,21.7,110009,2016-08-02 15:32:31:806
3.008,-9.474,-1.619,-2.043,0.774,0.945,-4.4,42.5,21.7,110109,2016-08-02 15:32:31:906
3.148,-4.493,-1.606,-0.14,2.054,0.588,-3.0,41.0,23.5,110211,2016-08-02 15:32:32:008
3.148,-4.493,-1.606,-0.14,2.054,0.588,-3.0,41.0,23.5,110309,2016-08-02 15:32:32:106
2.483,-3.66,-3.78,1.487,2.588,-1.106,0.1,36.1,30.7,110411,2016-08-02 15:32:32:208
2.483,-3.66,-3.78,1.487,2.588,-1.106,0.1,36.1,30.7,110510,2016-08-02 15:32:32:307
3.349,-5.793,3.03,1.487,2.588,-1.106,0.6,32.5,35.0,110609,2016-08-02 15:32:32:406
7.419,-8.502,-0.346,0.845,0.469,0.427,0.6,32.5,35.0,110711,2016-08-02 15:32:32:508
7.419,-8.502,-0.346,0.845,0.469,0.427,-1.2,36.3,31.7,110810,2016-08-02 15:32:32:607
0.268,-12.871,0.723,0.356,0.733,-0.28,-1.2,36.3,31.7,110909,2016-08-02 15:32:32:706
0.268,-12.871,0.723,0.356,0.733,-0.28,-4.0,41.8,25.1,111011,2016-08-02 15:32:32:808
7.075,-12.893,1.703,0.356,0.733,-0.28,-4.0,41.8,25.1,111112,2016-08-02 15:32:32:909
7.075,-12.893,1.703,-1.099,-0.344,1.194,-6.4,44.5,21.1,111211,2016-08-02 15:32:33:008
2.117,-5.048,0.801,-1.099,-0.344,1.194,-6.4,44.5,21.1,111312,2016-08-02 15:32:33:109
2.117,-5.048,0.801,1.199,1.785,0.203,-3.7,39.4,26.5,111410,2016-08-02 15:32:33:207
-1.782,-19.293,-10.581,1.199,1.785,0.203,-3.7,39.4,26.5,111511,2016-08-02 15:32:33:308
6.36,-10.225,-5.294,0.453,0.836,-1.146,-0.7,34.1,33.7,111609,2016-08-02 15:32:33:406
6.36,-10.225,-5.294,0.453,0.836,-1.146,-0.7,34.1,33.7,111709,2016-08-02 15:32:33:506
-2.942,-9.491,-3.247,0.453,0.836,-1.146,-0.5,32.6,35.7,111809,2016-08-02 15:32:33:606
-2.942,-9.491,-3.247,1.067,1.058,0.756,-0.5,32.6,35.7,111911,2016-08-02 15:32:33:708
-0.143,-9.794,0.757,1.067,1.058,0.756,-2.2,37.5,30.7,112011,2016-08-02 15:32:33:808
-0.143,-9.794,0.757,0.137,-0.252,0.078,-2.2,37.5,30.7,112109,2016-08-02 15:32:33:906
4.796,-13.626,-3.527,0.137,-0.252,0.078,-3.5,42.7,23.5,112211,2016-08-02 15:32:34:008
4.796,-13.626,-3.527,0.137,-0.252,0.078,-3.5,42.7,23.5,112310,2016-08-02 15:32:34:107
9.789,-8.712,-1.947,-1.323,-0.109,0.921,-1.9,44.4,21.2,112410,2016-08-02 15:32:34:207
2.919,-3.881,-0.124,-1.323,-0.109,0.921,-1.9,44.4,21.2,112509,2016-08-02 15:32:34:306
2.919,-3.881,-0.124,0.227,2.132,0.37,1.6,39.4,27.2,112609,2016-08-02 15:32:34:406
-2.375,-11.212,-5.391,0.227,2.132,0.37,1.6,39.4,27.2,112710,2016-08-02 15:32:34:507
-2.375,-11.212,-5.391,1.08,1.031,-1.348,4.2,33.1,35.4,112809,2016-08-02 15:32:34:606
2.054,-3.764,7.366,1.08,1.031,-1.348,4.2,33.1,35.4,112910,2016-08-02 15:32:34:707
2.054,-3.764,7.366,1.08,1.031,-1.348,4.2,33.1,35.4,113009,2016-08-02 15:32:34:806
4.914,-8.037,0.522,1.197,2.596,0.735,4.1,32.9,35.7,113109,2016-08-02 15:32:34:906
4.914,-8.037,0.522,1.197,2.596,0.735,4.1,32.9,35.7,113210,2016-08-02 15:32:35:007
-1.135,-11.495,-0.64,0.05,0.235,0.223,1.7,38.5,29.8,113312,2016-08-02 15:32:35:109
1.384,-12.752,0.889,0.05,0.235,0.223,1.7,38.5,29.8,113408,2016-08-02 15:32:35:205
1.384,-12.752,0.889,0.05,0.235,0.223,-0.7,44.7,22.1,113511,2016-08-02 15:32:35:308
-1.199,-8.604,0.329,-0.704,-0.57,1.328,-0.7,44.7,22.1,113610,2016-08-02 15:32:35:407
-1.199,-8.604,0.329,-0.704,-0.57,1.328,1.0,44.0,22.6,113709,2016-08-02 15:32:35:506
-0.839,-10.962,-9.33,1.18,1.31,0.189,1.0,44.0,22.6,113811,2016-08-02 15:32:35:608
-0.839,-10.962,-9.33,1.18,1.31,0.189,5.2,37.1,29.4,113910,2016-08-02 15:32:35:707
13.439,-19.316,-0.906,1.122,-1.558,-0.226,5.2,37.1,29.4,114009,2016-08-02 15:32:35:806
13.439,-19.316,-0.906,1.122,-1.558,-0.226,7.6,30.4,36.1,114110,2016-08-02 15:32:35:907
-5.407,-11.479,-2.514,1.122,-1.558,-0.226,7.6,30.4,36.1,114210,2016-08-02 15:32:36:007
1.024,-9.395,1.146,1.065,-0.436,0.21,6.2,31.1,34.6,114309,2016-08-02 15:32:36:106
1.024,-9.395,1.146,1.065,-0.436,0.21,6.2,31.1,34.6,114410,2016-08-02 15:32:36:207
4.178,-11.598,-0.746,0.059,-0.297,0.348,4.1,38.0,26.5,114512,2016-08-02 15:32:36:309
4.178,-11.598,-0.746,0.059,-0.297,0.348,4.1,38.0,26.5,114609,2016-08-02 15:32:36:406
10.922,-13.248,-1.187,0.059,-0.297,0.348,2.9,44.2,18.0,114710,2016-08-02 15:32:36:507
10.922,-13.248,-1.187,-0.914,-2.182,1.078,2.9,44.2,18.0,114810,2016-08-02 15:32:36:607
3.124,-2.897,0.736,-0.914,-2.182,1.078,6.4,42.1,19.3,114909,2016-08-02 15:32:36:706
3.124,-2.897,0.736,2.656,0.458,-0.295,6.4,42.1,19.3,115009,2016-08-02 15:32:36:806
-0.708,-14.351,-8.712,2.656,0.458,-0.295,11.3,36.7,25.1,115109,2016-08-02 15:32:36:906
0.36,-5.168,4.331,0.759,-1.502,-0.672,11.3,36.7,25.1,115209,2016-08-02 15:32:37:006
0.36,-5.168,4.331,0.759,-1.502,-0.672,13.9,33.0,29.2,115310,2016-08-02 15:32:37:107
3.403,-7.502,3.017,0.759,-1.502,-0.672,13.9,33.0,29.2,115411,2016-08-02 15:32:37:208
3.403,-7.502,3.017,1.226,-1.911,-0.234,10.7,36.2,26.3,115509,2016-08-02 15:32:37:306
2.081,-9.492,-2.45,1.226,-1.911,-0.234,10.7,36.2,26.3,115609,2016-08-02 15:32:37:406
2.081,-9.492,-2.45,0.411,-0.362,-0.151,8.5,40.7,21.1,115711,2016-08-02 15:32:37:508
-0.126,-12.76,-3.059,0.411,-0.362,-0.151,8.5,40.7,21.1,115809,2016-08-02 15:32:37:606
-0.126,-12.76,-3.059,0.411,-0.362,-0.151,7.5,43.0,17.6,115911,2016-08-02 15:32:37:708
-1.914,-10.298,-1.265,-1.747,-3.938,0.881,7.5,43.0,17.6,116010,2016-08-02 15:32:37:807
0.332,-3.307,-0.861,-1.747,-3.938,0.881,11.2,39.1,20.4,116109,2016-08-02 15:32:37:906
0.332,-3.307,-0.861,2.055,0.364,-0.422,11.2,39.1,20.4,116211,2016-08-02 15:32:38:008
8.107,-11.102,-4.933,2.055,0.364,-0.422,14.9,33.0,27.2,116310,2016-08-02 15:32:38:107
8.107,-11.102,-4.933,2.055,0.364,-0.422,14.9,33.0,27.2,116409,2016-08-02 15:32:38:206
-1.346,-18.234,-1.602,1.679,-1.541,-0.893,14.8,31.3,29.7,116511,2016-08-02 15:32:38:308
-1.346,-18.234,-1.602,1.679,-1.541,-0.893,14.8,31.3,29.7,116611,2016-08-02 15:32:38:408
-0.749,-10.616,-0.025,0.857,-2.103,-1.022,11.8,36.1,25.6,116709,2016-08-02 15:32:38:506
-0.749,-10.616,-0.025,0.857,-2.103,-1.022,11.8,36.1,25.6,116811,2016-08-02 15:32:38:608
0.59,-9.674,1.379,-0.227,-1.226,0.12,9.5,41.5,16.9,116911,2016-08-02 15:32:38:708
1.246,-13.431,0.637,-0.227,-1.226,0.12,9.5,41.5,16.9,117008,2016-08-02 15:32:38:805
1.246,-13.431,0.637,-0.227,-1.226,0.12,9.9,44.2,11.2,117109,2016-08-02 15:32:38:906
-0.998,-6.429,0.553,-0.731,-2.132,0.618,9.9,44.2,11.2,117209,2016-08-02 15:32:39:006
-0.998,-6.429,0.553,-0.731,-2.132,0.618,13.3,41.0,13.5,117309,2016-08-02 15:32:39:106
-0.321,-17.81,-10.676,2.446,0.077,-0.375,13.3,41.0,13.5,117409,2016-08-02 15:32:39:206
-0.321,-17.81,-10.676,2.446,0.077,-0.375,16.9,37.1,19.1,117510,2016-08-02 15:32:39:307
1.673,-15.842,-3.682,1.461,-2.778,-0.448,16.9,37.1,19.1,117610,2016-08-02 15:32:39:407
1.673,-15.842,-3.682,1.461,-2.778,-0.448,16.9,37.1,19.1,117709,2016-08-02 15:32:39:506
-3.513,-8.921,-7.265,1.461,-2.778,-0.448,18.4,35.6,20.8,117809,2016-08-02 15:32:39:606
-0.59,-9.273,2.984,1.477,-2.573,-0.437,18.4,35.6,20.8,117910,2016-08-02 15:32:39:707
-0.59,-9.273,2.984,1.477,-2.573,-0.437,16.1,39.5,14.3,118010,2016-08-02 15:32:39:807
0.196,-13.08,-5.188,-1.815,0.334,0.644,16.1,39.5,14.3,118109,2016-08-02 15:32:39:906
0.196,-13.08,-5.188,-1.815,0.334,0.644,12.6,43.6,5.2,118209,2016-08-02 15:32:40:006
-1.128,-9.25,1.388,-1.815,0.334,0.644,12.6,43.6,5.2,118310,2016-08-02 15:32:40:107
-1.128,-9.25,1.388,-1.224,-0.773,1.105,12.1,44.1,2.2,118411,2016-08-02 15:32:40:208
1.903,-1.44,0.379,-1.224,-0.773,1.105,12.1,44.1,2.2,118509,2016-08-02 15:32:40:306
1.903,-1.44,0.379,-1.416,1.453,1.169,15.9,40.1,9.5,118611,2016-08-02 15:32:40:408
12.74,-13.382,1.092,-1.416,1.453,1.169,15.9,40.1,9.5,118709,2016-08-02 15:32:40:506
-1.082,-17.287,0.759,0.633,-0.159,-2.124,19.1,36.8,16.7,118809,2016-08-02 15:32:40:606
-1.082,-17.287,0.759,0.633,-0.159,-2.124,19.1,36.8,16.7,118909,2016-08-02 15:32:40:706
0.852,-9.677,-3.299,0.633,-0.159,-2.124,17.0,38.3,15.4,119009,2016-08-02 15:32:40:806
0.852,-9.677,-3.299,0.691,0.162,-0.526,17.0,38.3,15.4,119110,2016-08-02 15:32:40:907
1.729,-14.095,-7.913,0.691,0.162,-0.526,13.3,41.5,6.2,119209,2016-08-02 15:32:41:006
1.729,-14.095,-7.913,-2.132,-0.418,1.488,13.3,41.5,6.2,119309,2016-08-02 15:32:41:106
0.834,-10.129,0.278,-2.132,-0.418,1.488,10.4,44.3,-1.5,119409,2016-08-02 15:32:41:206
0.834,-10.129,0.278,-2.132,-0.418,1.488,10.4,44.3,-1.5,119510,2016-08-02 15:32:41:307
3.705,-1.456,0.407,0.721,3.092,0.258,14.2,41.8,2.3,119611,2016-08-02 15:32:41:408
3.705,-1.456,0.407,0.721,3.092,0.258,14.2,41.8,2.3,119710,2016-08-02 15:32:41:507
8.768,-7.454,0.31,-0.307,0.851,-1.303,18.7,38.9,11.3,119809,2016-08-02 15:32:41:606
6.042,-19.393,1.334,-0.307,0.851,-1.303,18.7,38.9,11.3,119911,2016-08-02 15:32:41:708
6.042,-19.393,1.334,1.483,1.151,0.227,19.5,38.3,15.2,120012,2016-08-02 15:32:41:809
0.855,-9.868,-7.591,1.483,1.151,0.227,19.5,38.3,15.2,120111,2016-08-02 15:32:41:908
0.855,-9.868,-7.591,1.483,1.151,0.227,15.5,41.9,8.0,120210,2016-08-02 15:32:42:007
0.754,-13.035,-5.47,0.134,0.195,0.049,15.5,41.9,8.0,120311,2016-08-02 15:32:42:108
0.754,-13.035,-5.47,0.134,0.195,0.049,11.5,44.6,-1.7,120410,2016-08-02 15:32:42:207
5.644,-11.268,-3.285,-1.975,-2.537,0.662,11.5,44.6,-1.7,120511,2016-08-02 15:32:42:308
3.716,-0.975,1.205,-1.975,-2.537,0.662,13.3,43.7,-1.9,120611,2016-08-02 15:32:42:408
3.716,-0.975,1.205,-1.975,-2.537,0.662,13.3,43.7,-1.9,120709,2016-08-02 15:32:42:506
9.042,-2.421,-1.696,-0.641,0.59,-0.992,17.0,40.9,5.8,120811,2016-08-02 15:32:42:608
9.042,-2.421,-1.696,-0.641,0.59,-0.992,17.0,40.9,5.8,120912,2016-08-02 15:32:42:709
4.955,-15.865,1.161,1.084,-0.343,-1.672,20.0,39.1,13.1,121011,2016-08-02 15:32:42:808
4.955,-15.865,1.161,1.084,-0.343,-1.672,20.0,39.1,13.1,121111,2016-08-02 15:32:42:908
1.142,-9.681,-4.735,0.154,0.51,-0.922,16.9,41.0,10.8,121213,2016-08-02 15:32:43:010
1.142,-9.681,-4.735,0.154,0.51,-0.922,16.9,41.0,10.8,121310,2016-08-02 15:32:43:107
0.39,-13.02,-1.013,0.154,0.51,-0.922,13.2,43.7,2.3,121410,2016-08-02 15:32:43:207
6.372,-12.316,-4.099,-2.974,-0.06,2.064,13.2,43.7,2.3,121513,2016-08-02 15:32:43:310
6.372,-12.316,-4.099,-2.974,-0.06,2.064,12.0,44.5,-1.2,121610,2016-08-02 15:32:43:407
4.439,-0.172,1.138,-0.646,2.412,0.969,12.0,44.5,-1.2,121711,2016-08-02 15:32:43:508
4.439,-0.172,1.138,-0.646,2.412,0.969,15.4,41.1,5.2,121813,2016-08-02 15:32:43:610
2.139,1.736,-1.029,-0.646,2.412,0.969,15.4,41.1,5.2,121910,2016-08-02 15:32:43:707
2.139,1.736,-1.029,0.855,1.04,-1.143,18.7,38.5,14.4,122010,2016-08-02 15:32:43:807
3.605,-1.652,4.3,0.855,1.04,-1.143,18.7,38.5,14.4,122114,2016-08-02 15:32:43:911
3.605,-1.652,4.3,1.588,0.703,-0.421,18.1,38.9,16.3,122211,2016-08-02 15:32:44:008
4.284,-9.023,1.824,1.588,0.703,-0.421,18.1,38.9,16.3,122311,2016-08-02 15:32:44:108
4.284,-9.023,1.824,1.588,0.703,-0.421,14.9,42.7,7.8,122409,2016-08-02 15:32:44:206
0.508,-12.389,-0.326,0.15,0.041,-0.011,14.9,42.7,7.8,122510,2016-08-02 15:32:44:307
12.696,-14.909,-0.194,0.15,0.041,-0.011,11.8,44.8,-0.6,122612,2016-08-02 15:32:44:409
12.696,-14.909,-0.194,-1.713,-2.269,1.576,11.8,44.8,-0.6,122713,2016-08-02 15:32:44:510
2.611,-2.5,1.579,-1.713,-2.269,1.576,11.8,44.8,-0.6,122811,2016-08-02 15:32:44:608
2.611,-2.5,1.579,3.152,0.743,-0.733,14.1,42.8,0.1,122909,2016-08-02 15:32:44:706
1.472,-7.232,-4.433,3.152,0.743,-0.733,14.1,42.8,0.1,123014,2016-08-02 15:32:44:811
1.472,-7.232,-4.433,3.152,0.743,-0.733,18.5,39.5,9.5,123110,2016-08-02 15:32:44:907
1.034,-5.37,4.287,1.838,-1.498,-0.644,18.5,39.5,9.5,123209,2016-08-02 15:32:45:006
5.167,-7.439,2.167,1.838,-1.498,-0.644,20.4,38.2,14.5,123310,2016-08-02 15:32:45:107
5.167,-7.439,2.167,1.545,-1.204,-1.013,20.4,38.2,14.5,123410,2016-08-02 15:32:45:207
-0.967,-12.809,1.082,1.545,-1.204,-1.013,17.5,40.7,10.6,123510,2016-08-02 15:32:45:307
-0.967,-12.809,1.082,-2.884,0.411,1.749,17.5,40.7,10.6,123614,2016-08-02 15:32:45:411
9.07,-14.395,-2.972,-2.884,0.411,1.749,12.9,43.9,2.5,123711,2016-08-02 15:32:45:508
9.07,-14.395,-2.972,-2.884,0.411,1.749,12.9,43.9,2.5,123811,2016-08-02 15:32:45:608
2.898,-1.84,0.803,-1.012,1.338,1.107,13.6,43.6,1.0,123909,2016-08-02 15:32:45:706
2.898,-1.84,0.803,-1.012,1.338,1.107,13.6,43.6,1.0,124010,2016-08-02 15:32:45:807
-0.679,-9.875,-6.261,-0.413,0.691,-0.262,16.9,40.7,7.6,124112,2016-08-02 15:32:45:909
2.1,-5.164,4.065,-0.413,0.691,-0.262,16.9,40.7,7.6,124214,2016-08-02 15:32:46:011
2.1,-5.164,4.065,-0.413,0.691,-0.262,20.0,38.0,14.5,124310,2016-08-02 15:32:46:107
5.549,-6.961,2.954,1.649,-1.21,0.09,20.0,38.0,14.5,124410,2016-08-02 15:32:46:207
5.549,-6.961,2.954,1.649,-1.21,0.09,17.6,39.4,13.9,124511,2016-08-02 15:32:46:308
-1.024,-12.08,-0.486,0.487,-1.638,-0.544,17.6,39.4,13.9,124611,2016-08-02 15:32:46:408
-1.024,-12.08,-0.486,0.487,-1.638,-0.544,13.7,42.5,5.8,124710,2016-08-02 15:32:46:507
7.857,-13.425,1.812,-0.76,0.954,1.287,13.7,42.5,5.8,124810,2016-08-02 15:32:46:607
7.857,-13.425,1.812,-0.76,0.954,1.287,11.6,44.2,0.7,124911,2016-08-02 15:32:46:708
1.561,-4.584,2.425,-0.76,0.954,1.287,11.6,44.2,0.7,125011,2016-08-02 15:32:46:808
1.561,-4.584,2.425,1.994,2.499,-0.098,15.5,41.4,4.5,125110,2016-08-02 15:32:46:907
-9.148,-19.609,-15.892,1.994,2.499,-0.098,15.5,41.4,4.5,125210,2016-08-02 15:32:47:007
2.928,-1.547,4.986,0.622,-0.927,-0.015,20.1,37.8,13.0,125311,2016-08-02 15:32:47:108
2.928,-1.547,4.986,0.622,-0.927,-0.015,20.1,37.8,13.0,125409,2016-08-02 15:32:47:206
1.494,-6.512,3.168,0.622,-0.927,-0.015,20.9,36.7,16.4,125511,2016-08-02 15:32:47:308
1.494,-6.512,3.168,1.569,-3.627,-0.085,20.9,36.7,16.4,125612,2016-08-02 15:32:47:409
-2.05,-11.374,0.147,1.569,-3.627,-0.085,17.4,39.2,8.5,125709,2016-08-02 15:32:47:506
-2.05,-11.374,0.147,-0.894,-0.678,0.384,17.4,39.2,8.5,125809,2016-08-02 15:32:47:606
4.332,-14.351,2.968,-0.894,-0.678,0.384,13.6,41.6,-0.4,125911,2016-08-02 15:32:47:708
4.332,-14.351,2.968,-0.894,-0.678,0.384,13.6,41.6,-0.4,126011,2016-08-02 15:32:47:808
-0.442,-6.475,1.135,-2.004,-0.623,0.834,14.5,40.4,-1.8,126109,2016-08-02 15:32:47:906
1.256,-19.609,-19.609,-2.004,-0.623,0.834,14.5,40.4,-1.8,126211,2016-08-02 15:32:48:008
1.256,-19.609,-19.609,-1.313,0.919,1.414,18.1,37.1,7.4,126310,2016-08-02 15:32:48:107
1.247,-4.581,4.467,-1.313,0.919,1.414,18.1,37.1,7.4,126410,2016-08-02 15:32:48:207
1.247,-4.581,4.467,0.943,-0.75,-1.339,21.2,35.1,13.6,126510,2016-08-02 15:32:48:307
2.524,-7.241,-0.124,0.943,-0.75,-1.339,21.2,35.1,13.6,126611,2016-08-02 15:32:48:408
2.524,-7.241,-0.124,0.943,-0.75,-1.339,18.2,37.7,8.9,126710,2016-08-02 15:32:48:507
0.915,-9.829,1.114,0.693,-0.162,-0.724,18.2,37.7,8.9,126810,2016-08-02 15:32:48:607
0.915,-9.829,1.114,0.693,-0.162,-0.724,14.3,41.0,0.9,126910,2016-08-02 15:32:48:707
-0.757,-11.475,-1.367,-2.895,-0.585,1.548,14.3,41.0,0.9,127011,2016-08-02 15:32:48:808
-0.703,-9.366,2.398,-2.895,-0.585,1.548,13.4,42.6,-2.8,127109,2016-08-02 15:32:48:906
-0.703,-9.366,2.398,-2.895,-0.585,1.548,13.4,42.6,-2.8,127211,2016-08-02 15:32:49:008
1.553,-4.958,-1.665,-0.228,2.607,0.728,13.4,42.6,-2.8,127310,2016-08-02 15:32:49:107
1.553,-4.958,-1.665,-0.228,2.607,0.728,17.1,39.9,5.1,127409,2016-08-02 15:32:49:206
10.775,-18.758,-3.424,0.669,1.091,-2.377,20.9,37.0,16.1,127509,2016-08-02 15:32:49:306
10.775,-18.758,-3.424,0.669,1.091,-2.377,20.9,37.0,16.1,127610,2016-08-02 15:32:49:407
-0.605,-9.65,-6.65,1.611,2.96,0.512,20.1,37.5,17.9,127710,2016-08-02 15:32:49:507
-0.605,-9.65,-6.65,1.611,2.96,0.512,20.1,37.5,17.9,127811,2016-08-02 15:32:49:608
0.442,-10.257,-2.519,1.611,2.96,0.512,20.1,37.5,17.9,127909,2016-08-02 15:32:49:706
0.263,-11.818,-5.999,-0.742,-0.758,-0.163,17.5,40.7,10.0,128011,2016-08-02 15:32:49:808
0.263,-11.818,-5.999,-0.742,-0.758,-0.163,17.5,40.7,10.0,128109,2016-08-02 15:32:49:906
-1.478,-9.817,2.058,-0.657,-0.784,1.447,15.1,43.3,1.6,128209,2016-08-02 15:32:50:006
-1.478,-9.817,2.058,-0.657,-0.784,1.447,15.1,43.3,1.6,128310,2016-08-02 15:32:50:107
1.641,-0.964,1.255,-0.657,-0.784,1.447,17.6,40.7,2.4,128411,2016-08-02 15:32:50:208
1.641,-0.964,1.255,3.376,0.215,-1.46,17.6,40.7,2.4,128511,2016-08-02 15:32:50:308
19.546,-19.609,-2.707,3.376,0.215,-1.46,20.6,36.9,10.3,128610,2016-08-02 15:32:50:407
19.546,-19.609,-2.707,1.174,-0.223,-1.208,20.6,36.9,10.3,128710,2016-08-02 15:32:50:507
4.407,-7.147,-5.106,1.174,-0.223,-1.208,21.7,35.9,14.4,128809,2016-08-02 15:32:50:606
0.688,-9.503,0.63,0.102,0.343,-0.775,21.7,35.9,14.4,128910,2016-08-02 15:32:50:707
0.688,-9.503,0.63,0.102,0.343,-0.775,18.2,39.2,8.8,129009,2016-08-02 15:32:50:806
0.895,-13.263,-5.365,0.102,0.343,-0.775,18.2,39.2,8.8,129111,2016-08-02 15:32:50:908
0.895,-13.263,-5.365,-3.358,-0.551,1.67,15.4,41.9,1.1,129211,2016-08-02 15:32:51:008
-1.279,-10.888,0.52,-3.358,-0.551,1.67,15.4,41.9,1.1,129311,2016-08-02 15:32:51:108
-1.279,-10.888,0.52,-0.838,1.202,0.678,16.2,41.5,0.8,129411,2016-08-02 15:32:51:208
3.988,-2.428,0.767,-0.838,1.202,0.678,16.2,41.5,0.8,129510,2016-08-02 15:32:51:307
3.988,-2.428,0.767,-0.838,1.202,0.678,19.3,38.0,8.5,129610,2016-08-02 15:32:51:407
11.076,-13.151,1.961,0.52,0.671,-1.239,19.3,38.0,8.5,129710,2016-08-02 15:32:51:507
-0.582,-15.868,3.138,0.52,0.671,-1.239,21.4,36.2,14.7,129811,2016-08-02 15:32:51:608
-0.582,-15.868,3.138,1.551,-0.026,0.098,21.4,36.2,14.7,129911,2016-08-02 15:32:51:708
0.373,-9.189,-4.427,1.551,-0.026,0.098,18.8,38.3,11.9,130014,2016-08-02 15:32:51:811
0.373,-9.189,-4.427,-0.417,-0.564,-0.385,18.8,38.3,11.9,130109,2016-08-02 15:32:51:906
1.032,-14.975,-7.211,-0.417,-0.564,-0.385,14.8,41.3,2.6,130210,2016-08-02 15:32:52:007
1.032,-14.975,-7.211,-0.417,-0.564,-0.385,14.8,41.3,2.6,130311,2016-08-02 15:32:52:108
1.106,-9.949,-1.676,0.01,-0.679,1.59,13.1,42.5,-1.7,130411,2016-08-02 15:32:52:208
1.106,-9.949,-1.676,0.01,-0.679,1.59,13.1,42.5,-1.7,130510,2016-08-02 15:32:52:307
4.815,-0.858,0.553,2.825,0.951,-0.513,16.1,39.4,3.3,130610,2016-08-02 15:32:52:407
8.742,-8.56,0.7,2.825,0.951,-0.513,16.1,39.4,3.3,130709,2016-08-02 15:32:52:506
8.742,-8.56,0.7,2.825,0.951,-0.513,20.2,36.2,12.5,130810,2016-08-02 15:32:52:607
1.049,-18.75,4.508,1.809,-2.735,-0.862,20.2,36.2,12.5,130909,2016-08-02 15:32:52:706
1.049,-18.75,4.508,1.809,-2.735,-0.862,20.0,36.2,15.7,131011,2016-08-02 15:32:52:808
1.296,-9.163,-5.993,1.485,-1.245,-0.818,20.0,36.2,15.7,131111,2016-08-02 15:32:52:908
1.296,-9.163,-5.993,1.485,-1.245,-0.818,16.6,39.8,9.4,131210,2016-08-02 15:32:53:007
-1.484,-13.907,-3.439,-2.398,0.328,1.579,16.6,39.8,9.4,131309,2016-08-02 15:32:53:106
-1.484,-13.907,-3.439,-2.398,0.328,1.579,13.4,42.6,2.8,131410,2016-08-02 15:32:53:207
3.736,-9.392,1.232,-2.398,0.328,1.579,13.4,42.6,2.8,131510,2016-08-02 15:32:53:307
3.436,-0.313,0.29,-1.146,0.786,1.16,15.5,41.2,3.4,131610,2016-08-02 15:32:53:407
3.436,-0.313,0.29,-1.146,0.786,1.16,15.5,41.2,3.4,131711,2016-08-02 15:32:53:508
9.577,-8.004,-2.271,-0.985,0.188,0.372,18.9,37.8,11.0,131809,2016-08-02 15:32:53:606
9.577,-8.004,-2.271,-0.985,0.188,0.372,18.9,37.8,11.0,131911,2016-08-02 15:32:53:708
4.687,-19.609,-0.438,-0.985,0.188,0.372,21.4,35.0,16.3,132010,2016-08-02 15:32:53:807
4.687,-19.609,-0.438,1.909,-1.324,-0.436,21.4,35.0,16.3,132109,2016-08-02 15:32:53:906
3.296,-9.111,-7.361,1.909,-1.324,-0.436,18.0,38.1,12.9,132210,2016-08-02 15:32:54:007
3.296,-9.111,-7.361,0.657,-1.031,-0.676,18.0,38.1,12.9,132310,2016-08-02 15:32:54:107
0.721,-11.075,3.676,0.657,-1.031,-0.676,14.2,41.2,4.5,132409,2016-08-02 15:32:54:206
10.814,-12.096,-0.674,-1.93,0.572,1.24,14.2,41.2,4.5,132509,2016-08-02 15:32:54:306
10.814,-12.096,-0.674,-1.93,0.572,1.24,14.2,41.2,4.5,132609,2016-08-02 15:32:54:406
3.135,-0.889,1.138,-1.93,0.572,1.24,12.9,42.2,1.0,132710,2016-08-02 15:32:54:507
3.135,-0.889,1.138,1.427,2.526,0.07,12.9,42.2,1.0,132809,2016-08-02 15:32:54:606
2.339,-4.348,-2.892,1.427,2.526,0.07,15.7,38.0,7.0,132910,2016-08-02 15:32:54:707
2.339,-4.348,-2.892,0.17,-0.745,-0.134,15.7,38.0,7.0,133010,2016-08-02 15:32:54:807
4.189,-7.014,4.326,0.17,-0.745,-0.134,18.1,34.9,14.7,133109,2016-08-02 15:32:54:906
4.189,-7.014,4.326,0.17,-0.745,-0.134,18.1,34.9,14.7,133210,2016-08-02 15:32:55:007
2.491,-9.328,-2.32,1.11,-1.776,-0.035,16.3,35.1,15.4,133310,2016-08-02 15:32:55:107
0.851,-12.279,0.184,1.11,-1.776,-0.035,16.3,35.1,15.4,133411,2016-08-02 15:32:55:208
0.851,-12.279,0.184,-0.082,-0.172,0.276,12.5,38.7,8.3,133509,2016-08-02 15:32:55:306
10.723,-12.971,1.756,-0.082,-0.172,0.276,12.5,38.7,8.3,133611,2016-08-02 15:32:55:408
10.723,-12.971,1.756,-2.087,-1.395,0.804,9.4,41.5,2.0,133710,2016-08-02 15:32:55:507
2.182,-2.276,1.042,-2.087,-1.395,0.804,9.4,41.5,2.0,133810,2016-08-02 15:32:55:607
2.182,-2.276,1.042,-2.087,-1.395,0.804,11.2,39.7,5.8,133911,2016-08-02 15:32:55:708
-0.363,-14.157,-8.957,-1.123,0.654,0.825,11.2,39.7,5.8,134009,2016-08-02 15:32:55:806
-0.363,-14.157,-8.957,-1.123,0.654,0.825,14.6,36.9,12.7,134109,2016-08-02 15:32:55:906
3.97,-2.784,5.838,1.542,-0.156,-2.198,14.6,36.9,12.7,134210,2016-08-02 15:32:56:007
2.926,-8.566,2.681,1.542,-0.156,-2.198,16.1,35.6,16.7,134309,2016-08-02 15:32:56:106
2.926,-8.566,2.681,1.542,-0.156,-2.198,16.1,35.6,16.7,134411,2016-08-02 15:32:56:208
-0.809,-11.589,-0.39,0.379,-0.347,-1.02,12.4,38.8,10.3,134510,2016-08-02 15:32:56:307
-0.809,-11.589,-0.39,0.379,-0.347,-1.02,12.4,38.8,10.3,134609,2016-08-02 15:32:56:406
4.85,-13.762,4.574,-3.553,-0.357,1.598,8.8,41.5,1.9,134710,2016-08-02 15:32:56:507
4.85,-13.762,4.574,-3.553,-0.357,1.598,8.8,41.5,1.9,134810,2016-08-02 15:32:56:607
-0.481,-5.036,0.641,-0.421,1.019,0.788,9.8,41.3,0.4,134909,2016-08-02 15:32:56:706
-0.481,-5.036,0.641,-0.421,1.019,0.788,9.8,41.3,0.4,135010,2016-08-02 15:32:56:807
-12.309,-19.609,-16.95,-0.421,1.019,0.788,14.0,38.5,7.3,135111,2016-08-02 15:32:56:908
0.404,-10.548,4.147,0.37,1.666,-1.696,14.0,38.5,7.3,135209,2016-08-02 15:32:57:006
0.404,-10.548,4.147,0.37,1.666,-1.696,17.2,36.7,14.7,135311,2016-08-02 15:32:57:108
1.809,-7.353,1.909,1.252,0.863,0.269,17.2,36.7,14.7,135410,2016-08-02 15:32:57:207
1.809,-7.353,1.909,1.252,0.863,0.269,14.5,38.6,11.9,135509,2016-08-02 15:32:57:306
-0.984,-11.734,-0.758,1.252,0.863,0.269,14.5,38.6,11.9,135609,2016-08-02 15:32:57:406
-0.984,-11.734,-0.758,-0.44,0.381,-0.082,10.7,41.6,3.9,135711,2016-08-02 15:32:57:508
3.87,-16.63,4.82,-0.44,0.381,-0.082,10.7,41.6,3.9,135810,2016-08-02 15:32:57:607
3.87,-16.63,4.82,-0.156,-2.433,1.711,9.1,43.6,-0.1,135910,2016-08-02 15:32:57:707
-1.705,-5.397,3.752,-0.156,-2.433,1.711,9.1,43.6,-0.1,136010,2016-08-02 15:32:57:807
8.086,-18.417,-17.974,2.625,0.666,-1.173,12.9,41.4,4.4,136109,2016-08-02 15:32:57:906
8.086,-18.417,-17.974,2.625,0.666,-1.173,12.9,41.4,4.4,136211,2016-08-02 15:32:58:008
4.529,-13.959,-0.931,2.625,0.666,-1.173,16.9,39.2,12.5,136310,2016-08-02 15:32:58:107
4.529,-13.959,-0.931,1.443,-3.475,-0.789,16.9,39.2,12.5,136409,2016-08-02 15:32:58:206
-1.164,-8.452,0.688,1.443,-3.475,-0.789,15.8,39.7,14.7,136509,2016-08-02 15:32:58:306
-1.164,-8.452,0.688,1.082,-0.568,-0.835,15.8,39.7,14.7,136611,2016-08-02 15:32:58:408
0.566,-10.334,1.884,1.082,-0.568,-0.835,12.0,43.4,9.0,136708,2016-08-02 15:32:58:505
0.566,-10.334,1.884,1.082,-0.568,-0.835,12.0,43.4,9.0,136811,2016-08-02 15:32:58:608
-1.118,-12.1,-1.094,-2.84,-0.316,0.882,8.4,45.9,2.8,136909,2016-08-02 15:32:58:706
-1.115,-8.356,3.036,-2.84,-0.316,0.882,8.4,45.9,2.8,137010,2016-08-02 15:32:58:807
-1.115,-8.356,3.036,-1.28,0.261,1.57,10.9,44.8,4.0,137109,2016-08-02 15:32:58:906
1.115,-4.836,-2.733,-1.28,0.261,1.57,10.9,44.8,4.0,137209,2016-08-02 15:32:59:006
1.115,-4.836,-2.733,-1.28,0.261,1.57,10.9,44.8,4.0,137310,2016-08-02 15:32:59:107
12.853,-19.037,-1.75,-1.24,-0.426,0.782,14.9,40.8,12.8,137411,2016-08-02 15:32:59:208
12.853,-19.037,-1.75,-1.24,-0.426,0.782,14.9,40.8,12.8,137509,2016-08-02 15:32:59:306
-3.533,-9.178,-6.183,2.462,-1.21,-0.311,17.3,37.8,19.5,137610,2016-08-02 15:32:59:407
-3.533,-9.178,-6.183,2.462,-1.21,-0.311,17.3,37.8,19.5,137709,2016-08-02 15:32:59:506
0.839,-10.538,1.573,0.938,-1.047,-0.785,14.5,40.2,15.7,137809,2016-08-02 15:32:59:606
-1.989,-12.867,-4.311,0.938,-1.047,-0.785,14.5,40.2,15.7,137909,2016-08-02 15:32:59:706
-1.989,-12.867,-4.311,0.938,-1.047,-0.785,10.9,43.7,5.0,138009,2016-08-02 15:32:59:806
1.453,-9.892,3.892,-1.595,1.016,1.31,10.9,43.7,5.0,138109,2016-08-02 15:32:59:906
1.453,-9.892,3.892,-1.595,1.016,1.31,10.1,44.6,0.4,138208,2016-08-02 15:33:00:005
3.247,-1.49,-0.117,0.992,2.969,-0.212,10.1,44.6,0.4,138311,2016-08-02 15:33:00:108
3.247,-1.49,-0.117,0.992,2.969,-0.212,13.0,41.4,7.4,138409,2016-08-02 15:33:00:206
6.259,-12.094,-2.5,-0.131,-0.325,-0.89,13.0,41.4,7.4,138510,2016-08-02 15:33:00:307
6.259,-12.094,-2.5,-0.131,-0.325,-0.89,16.8,38.0,17.5,138609,2016-08-02 15:33:00:406
-3.243,-16.226,0.625,-0.131,-0.325,-0.89,16.8,38.0,17.5,138709,2016-08-02 15:33:00:506
2.017,-9.055,-3.399,1.761,-1.515,0.356,15.9,37.9,19.9,138809,2016-08-02 15:33:00:606
2.017,-9.055,-3.399,1.761,-1.515,0.356,15.9,37.9,19.9,138911,2016-08-02 15:33:00:708
-0.87,-15.425,-4.438,-0.356,-0.943,-0.166,12.7,41.3,11.5,139009,2016-08-02 15:33:00:806
-0.87,-15.425,-4.438,-0.356,-0.943,-0.166,12.7,41.3,11.5,139110,2016-08-02 15:33:00:907
2.884,-11.093,-5.274,-0.356,-0.943,-0.166,9.8,44.5,3.1,139209,2016-08-02 15:33:01:006
2.884,-11.093,-5.274,-1.875,-0.633,1.071,9.8,44.5,3.1,139311,2016-08-02 15:33:01:108
5.325,-1.057,-0.224,-1.875,-0.633,1.071,11.3,42.5,6.0,139410,2016-08-02 15:33:01:207
5.325,-1.057,-0.224,-0.561,0.72,0.027,11.3,42.5,6.0,139509,2016-08-02 15:33:01:306
3.37,-4.356,-2.413,-0.561,0.72,0.027,14.8,38.0,16.3,139609,2016-08-02 15:33:01:406
3.37,-4.356,-2.413,-0.561,0.72,0.027,14.8,38.0,16.3,139710,2016-08-02 15:33:01:507
3.91,-9.765,2.889,1.448,0.322,-2.292,16.1,34.9,22.7,139810,2016-08-02 15:33:01:607
7.259,-7.643,-3.522,1.448,0.322,-2.292,16.1,34.9,22.7,139909,2016-08-02 15:33:01:706
7.259,-7.643,-3.522,0.317,0.62,-1.136,12.7,38.8,17.8,140011,2016-08-02 15:33:01:808
1.365,-13.467,0.317,0.317,0.62,-1.136,12.7,38.8,17.8,140109,2016-08-02 15:33:01:906
1.365,-13.467,0.317,-3.159,0.084,1.609,8.9,42.9,9.2,140209,2016-08-02 15:33:02:006
12.99,-13.346,-0.896,-3.159,0.084,1.609,8.9,42.9,9.2,140312,2016-08-02 15:33:02:109
12.99,-13.346,-0.896,-3.159,0.084,1.609,9.2,43.5,6.5,140410,2016-08-02 15:33:02:207
2.467,-1.411,0.729,-1.008,-0.03,0.75,9.2,43.5,6.5,140511,2016-08-02 15:33:02:308
0.606,-11.615,-6.354,-1.008,-0.03,0.75,13.0,39.8,12.2,140612,2016-08-02 15:33:02:409
0.606,-11.615,-6.354,-1.035,0.034,-0.232,13.0,39.8,12.2,140709,2016-08-02 15:33:02:506
2.25,-4.461,5.905,-1.035,0.034,-0.232,17.6,36.4,19.1,140811,2016-08-02 15:33:02:608
2.25,-4.461,5.905,1.874,-0.837,-0.53,17.6,36.4,19.1,140912,2016-08-02 15:33:02:709
2.771,-7.441,2.72,1.874,-0.837,-0.53,15.0,38.3,17.1,141011,2016-08-02 15:33:02:808
2.771,-7.441,2.72,1.874,-0.837,-0.53,15.0,38.3,17.1,141111,2016-08-02 15:33:02:908
1.711,-12.443,-1.511,0.841,-0.353,-0.237,11.4,41.9,9.9,141213,2016-08-02 15:33:03:010
