ACCELEROMETER X (m/s²),ACCELEROMETER Y (m/s²),ACCELEROMETER Z (m/s²),GYROSCOPE X (rad/s),GYROSCOPE Y (rad/s),GYROSCOPE Z (rad/s),MAGNETIC FIELD X (μT),MAGNETIC FIELD Y (μT),MAGNETIC FIELD Z (μT),Time since start in ms ,YYYY-MO-DD HH-MI-SS_SSS
-0.037,2.616,9.233,-0.444,-0.125,-0.272,-6.9,-4.1,-43.0,7,2016-08-02 15:29:28:911
-0.783,2.036,7.368,-0.444,-0.125,-0.272,-6.9,-4.1,-43.0,106,2016-08-02 15:29:29:010
-0.783,2.036,7.368,-3.568,-1.178,1.36,-7.6,-1.3,-42.8,207,2016-08-02 15:29:29:111
0.698,-0.3,7.644,-3.568,-1.178,1.36,-7.6,-1.3,-42.8,307,2016-08-02 15:29:29:211
0.698,-0.3,7.644,-1.666,-1.758,0.479,-8.6,4.3,-41.7,407,2016-08-02 15:29:29:311
2.885,4.716,12.927,-1.666,-1.758,0.479,-8.6,4.3,-41.7,507,2016-08-02 15:29:29:411
2.885,4.716,12.927,-1.666,-1.758,0.479,-10.3,7.6,-41.3,606,2016-08-02 15:29:29:510
0.37,1.507,8.405,-0.207,-0.61,-0.251,-10.3,7.6,-41.3,707,2016-08-02 15:29:29:611
0.37,1.507,8.405,-0.207,-0.61,-0.251,-12.4,8.8,-40.7,806,2016-08-02 15:29:29:710
0.457,1.354,8.646,0.377,0.307,-0.055,-12.4,8.8,-40.7,906,2016-08-02 15:29:29:810
1.341,2.391,8.336,0.377,0.307,-0.055,-15.0,7.5,-40.0,1006,2016-08-02 15:29:29:910
1.341,2.391,8.336,0.377,0.307,-0.055,-15.0,7.5,-40.0,1106,2016-08-02 15:29:30:010
1.797,2.209,7.4,0.049,0.17,0.314,-15.5,6.7,-39.7,1206,2016-08-02 15:29:30:110
1.797,2.209,7.4,0.049,0.17,0.314,-15.5,6.7,-39.7,1306,2016-08-02 15:29:30:210
2.826,2.021,9.251,-0.285,-0.513,-0.231,-16.5,5.9,-39.0,1406,2016-08-02 15:29:30:310
2.826,2.021,9.251,-0.285,-0.513,-0.231,-16.5,5.9,-39.0,1507,2016-08-02 15:29:30:411
2.894,-0.199,7.134,0.294,0.027,0.892,-18.2,6.2,-37.7,1606,2016-08-02 15:29:30:510
2.894,-0.199,7.134,0.294,0.027,0.892,-18.2,6.2,-37.7,1706,2016-08-02 15:29:30:610
4.804,0.52,9.269,0.294,0.027,0.892,-22.7,8.9,-33.1,1806,2016-08-02 15:29:30:710
9.783,-11.096,-1.12,0.448,-0.228,1.717,-22.7,8.9,-33.1,1906,2016-08-02 15:29:30:810
9.783,-11.096,-1.12,0.448,-0.228,1.717,-26.1,16.1,-23.7,2007,2016-08-02 15:29:30:911
17.128,-7.405,-1.65,3.289,-3.78,2.551,-26.1,16.1,-23.7,2106,2016-08-02 15:29:31:010
17.128,-7.405,-1.65,3.289,-3.78,2.551,-26.1,16.1,-23.7,2207,2016-08-02 15:29:31:111
5.294,-6.266,-2.337,3.289,-3.78,2.551,-18.2,29.1,-9.5,2307,2016-08-02 15:29:31:211
8.508,-8.449,-3.126,-0.158,-1.018,-3.377,-18.2,29.1,-9.5,2407,2016-08-02 15:29:31:311
8.508,-8.449,-3.126,-0.158,-1.018,-3.377,-9.8,40.4,0.1,2507,2016-08-02 15:29:31:411
7.168,-2.96,-1.776,-0.703,0.449,-0.112,-9.8,40.4,0.1,2606,2016-08-02 15:29:31:510
7.168,-2.96,-1.776,-0.703,0.449,-0.112,-5.8,44.3,1.7,2707,2016-08-02 15:29:31:611
8.593,-5.722,-0.8,-0.452,-0.102,0.071,-5.8,44.3,1.7,2807,2016-08-02 15:29:31:711
6.941,-5.073,-0.241,-0.452,-0.102,0.071,-11.6,43.0,6.4,2907,2016-08-02 15:29:31:811
6.941,-5.073,-0.241,-0.452,-0.102,0.071,-11.6,43.0,6.4,3009,2016-08-02 15:29:31:913
7.118,-9.224,-1.999,0.076,0.184,0.316,-10.9,42.3,9.8,3107,2016-08-02 15:29:32:011
5.231,-6.233,2.462,0.076,0.184,0.316,-10.9,42.3,9.8,3206,2016-08-02 15:29:32:110
5.231,-6.233,2.462,-0.41,0.631,2.475,-2.2,43.6,9.7,3307,2016-08-02 15:29:32:211
0.779,-9.984,0.897,-0.41,0.631,2.475,-2.2,43.6,9.7,3407,2016-08-02 15:29:32:311
0.779,-9.984,0.897,-0.41,0.631,2.475,12.4,41.7,5.7,3506,2016-08-02 15:29:32:410
-0.601,-12.102,-0.185,0.111,-0.215,2.166,12.4,41.7,5.7,3608,2016-08-02 15:29:32:512
0.338,-9.85,-0.067,0.111,-0.215,2.166,25.7,37.0,1.7,3707,2016-08-02 15:29:32:611
0.338,-9.85,-0.067,-0.402,0.124,-0.807,25.7,37.0,1.7,3809,2016-08-02 15:29:32:713
6.241,-13.849,-3.666,-0.402,0.124,-0.807,31.0,33.7,0.1,3906,2016-08-02 15:29:32:810
7.013,-12.824,-2.803,0.718,-2.546,2.606,31.0,33.7,0.1,4006,2016-08-02 15:29:32:910
7.013,-12.824,-2.803,0.718,-2.546,2.606,28.9,35.0,-0.4,4107,2016-08-02 15:29:33:011
-0.033,-10.9,-4.322,0.718,-2.546,2.606,28.9,35.0,-0.4,4207,2016-08-02 15:29:33:111
-0.033,-10.9,-4.322,-0.77,0.582,-1.378,26.6,36.8,-1.6,4307,2016-08-02 15:29:33:211
-1.563,-14.581,-0.057,-0.77,0.582,-1.378,26.6,36.8,-1.6,4407,2016-08-02 15:29:33:311
-1.805,-9.716,-1.467,2.329,-2.625,1.202,24.1,38.7,-3.2,4507,2016-08-02 15:29:33:411
-1.805,-9.716,-1.467,2.329,-2.625,1.202,24.1,38.7,-3.2,4607,2016-08-02 15:29:33:511
-2.522,-6.099,2.722,2.329,-2.625,1.202,25.3,37.1,-7.6,4707,2016-08-02 15:29:33:611
1.218,-11.168,-1.483,0.558,1.9,0.174,25.3,37.1,-7.6,4807,2016-08-02 15:29:33:711
1.218,-11.168,-1.483,0.558,1.9,0.174,26.7,33.7,-13.3,4907,2016-08-02 15:29:33:811
-2.177,-10.992,0.135,-2.886,-1.255,-1.023,26.7,33.7,-13.3,5007,2016-08-02 15:29:33:911
-2.177,-10.992,0.135,-2.886,-1.255,-1.023,28.4,32.4,-13.3,5106,2016-08-02 15:29:34:010
-0.573,-8.058,-0.688,0.365,-0.319,0.193,28.4,32.4,-13.3,5206,2016-08-02 15:29:34:110
-1.769,-10.407,-9.475,0.365,-0.319,0.193,27.2,34.6,-7.7,5307,2016-08-02 15:29:34:211
-1.769,-10.407,-9.475,0.365,-0.319,0.193,27.2,34.6,-7.7,5406,2016-08-02 15:29:34:310
-4.128,-8.367,3.588,-0.12,-1.424,0.192,27.2,34.6,-7.7,5507,2016-08-02 15:29:34:411
-4.128,-8.367,3.588,-0.12,-1.424,0.192,25.9,37.2,-3.5,5609,2016-08-02 15:29:34:513
1.524,-8.484,-3.108,0.994,0.144,-0.131,25.9,37.2,-3.5,5708,2016-08-02 15:29:34:612
7.511,-5.243,11.984,0.994,0.144,-0.131,26.6,36.6,-6.1,5806,2016-08-02 15:29:34:710
7.511,-5.243,11.984,0.994,0.144,-0.131,26.6,36.6,-6.1,5909,2016-08-02 15:29:34:813
-4.207,-10.243,-1.73,-1.04,-2.828,-0.152,27.3,35.2,-10.5,6008,2016-08-02 15:29:34:912
-4.207,-10.243,-1.73,-1.04,-2.828,-0.152,27.3,35.2,-10.5,6107,2016-08-02 15:29:35:011
6.814,-10.319,-0.86,-0.597,1.712,0.044,27.8,34.5,-11.1,6208,2016-08-02 15:29:35:112
6.814,-10.319,-0.86,-0.597,1.712,0.044,27.8,34.5,-11.1,6307,2016-08-02 15:29:35:211
-8.266,-7.121,-5.999,0.14,-7.355,0.166,27.8,35.1,-4.8,6407,2016-08-02 15:29:35:311
-8.266,-7.121,-5.999,0.14,-7.355,0.166,27.8,35.1,-4.8,6508,2016-08-02 15:29:35:412
0.962,-10.19,-4.902,0.14,-7.355,0.166,26.7,37.3,0.4,6608,2016-08-02 15:29:35:512
2.005,-15.414,15.484,0.094,-1.211,0.208,26.7,37.3,0.4,6707,2016-08-02 15:29:35:611
2.005,-15.414,15.484,0.094,-1.211,0.208,25.7,38.2,-0.5,6809,2016-08-02 15:29:35:713
3.494,-8.885,0.193,0.613,0.02,0.094,25.7,38.2,-0.5,6908,2016-08-02 15:29:35:812
3.494,-8.885,0.193,0.613,0.02,0.094,26.3,37.9,-7.0,7006,2016-08-02 15:29:35:910
-0.704,-11.854,-4.119,0.613,0.02,0.094,26.3,37.9,-7.0,7109,2016-08-02 15:29:36:013
-0.704,-11.854,-4.119,-0.517,1.259,0.552,28.2,34.7,-12.0,7206,2016-08-02 15:29:36:110
-6.653,-13.532,2.143,-0.517,1.259,0.552,28.2,34.7,-12.0,7307,2016-08-02 15:29:36:211
-6.653,-13.532,2.143,-1.744,1.339,-0.789,30.6,32.4,-14.5,7408,2016-08-02 15:29:36:312
-0.52,-5.079,-0.233,-1.744,1.339,-0.789,30.6,32.4,-14.5,7508,2016-08-02 15:29:36:412
-0.52,-5.079,-0.233,-1.744,1.339,-0.789,29.6,34.4,-8.8,7608,2016-08-02 15:29:36:512
2.81,-19.609,-14.131,1.154,-1.026,0.496,29.6,34.4,-8.8,7708,2016-08-02 15:29:36:612
-2.281,-2.389,3.774,1.154,-1.026,0.496,27.1,38.1,-3.2,7808,2016-08-02 15:29:36:712
-2.281,-2.389,3.774,1.532,0.33,1.212,27.1,38.1,-3.2,7908,2016-08-02 15:29:36:812
-1.366,-6.779,2.096,1.532,0.33,1.212,25.7,38.9,-1.9,8008,2016-08-02 15:29:36:912
-1.366,-6.779,2.096,0.555,0.706,0.628,25.7,38.9,-1.9,8108,2016-08-02 15:29:37:012
0.677,-12.065,-0.699,0.555,0.706,0.628,26.9,36.7,-6.6,8208,2016-08-02 15:29:37:112
0.677,-12.065,-0.699,0.555,0.706,0.628,26.9,36.7,-6.6,8308,2016-08-02 15:29:37:212
-6.124,-13.998,4.049,-2.383,-0.35,-0.575,29.1,34.3,-8.2,8409,2016-08-02 15:29:37:313
-1.031,-2.986,1.168,-2.383,-0.35,-0.575,29.1,34.3,-8.2,8509,2016-08-02 15:29:37:413
-1.031,-2.986,1.168,0.238,-2.291,0.012,28.7,33.6,-3.8,8608,2016-08-02 15:29:37:512
1.922,-14.585,-9.339,0.238,-2.291,0.012,28.7,33.6,-3.8,8706,2016-08-02 15:29:37:610
1.922,-14.585,-9.339,0.238,-2.291,0.012,26.5,35.2,1.0,8808,2016-08-02 15:29:37:712
-1.135,-3.625,5.455,0.376,-1.532,0.608,26.5,35.2,1.0,8907,2016-08-02 15:29:37:811
-1.135,-3.625,5.455,0.376,-1.532,0.608,25.1,36.1,2.0,9008,2016-08-02 15:29:37:912
-3.47,-8.513,1.57,0.842,1.9,-0.019,25.1,36.1,2.0,9109,2016-08-02 15:29:38:013
-3.47,-8.513,1.57,0.842,1.9,-0.019,26.5,34.9,-3.6,9208,2016-08-02 15:29:38:112
2.357,-11.73,-1.655,-1.046,0.881,-0.356,26.5,34.9,-3.6,9308,2016-08-02 15:29:38:212
-3.686,-14.199,3.402,-1.046,0.881,-0.356,29.0,32.2,-7.0,9410,2016-08-02 15:29:38:314
-3.686,-14.199,3.402,-1.046,0.881,-0.356,29.0,32.2,-7.0,9508,2016-08-02 15:29:38:412
-1.448,-2.371,0.432,-1.412,-0.731,-1.011,28.9,32.5,-5.3,9608,2016-08-02 15:29:38:512
-1.448,-2.371,0.432,-1.412,-0.731,-1.011,28.9,32.5,-5.3,9709,2016-08-02 15:29:38:613
4.372,-11.508,-6.914,-1.487,-1.499,-1.167,26.8,35.2,-1.4,9808,2016-08-02 15:29:38:712
4.372,-11.508,-6.914,-1.487,-1.499,-1.167,26.8,35.2,-1.4,9908,2016-08-02 15:29:38:812
-3.929,-8.379,0.881,0.845,-1.823,1.098,24.2,38.2,0.1,10153,2016-08-02 15:29:39:057
-3.929,-8.379,0.881,0.845,-1.823,1.098,24.2,38.2,0.1,10154,2016-08-02 15:29:39:058
-3.929,-8.379,0.881,0.845,-1.823,1.098,25.6,36.8,-4.9,10207,2016-08-02 15:29:39:111
-3.929,-8.379,0.881,1.157,0.456,0.859,25.6,36.8,-4.9,10306,2016-08-02 15:29:39:210
0.686,-12.325,-0.709,1.157,0.456,0.859,28.8,33.0,-9.1,10406,2016-08-02 15:29:39:310
-4.915,-15.09,3.515,-2.933,0.4,-0.965,28.8,33.0,-9.1,10506,2016-08-02 15:29:39:410
-4.915,-15.09,3.515,-2.933,0.4,-0.965,31.0,30.2,-10.7,10607,2016-08-02 15:29:39:511
0.661,-6.891,-1.931,-2.933,0.4,-0.965,31.0,30.2,-10.7,10707,2016-08-02 15:29:39:611
-0.921,-8.676,-5.005,-0.758,-1.23,-0.378,29.2,32.6,-4.3,10807,2016-08-02 15:29:39:711
-0.921,-8.676,-5.005,-0.758,-1.23,-0.378,29.2,32.6,-4.3,10907,2016-08-02 15:29:39:811
-5.222,-16.647,3.044,0.054,-1.136,0.67,26.4,37.0,0.2,11007,2016-08-02 15:29:39:911
-5.222,-16.647,3.044,0.054,-1.136,0.67,26.4,37.0,0.2,11107,2016-08-02 15:29:40:011
3.526,-19.138,3.813,0.054,-1.136,0.67,25.2,38.8,0.5,11207,2016-08-02 15:29:40:111
-0.037,-9.659,-0.453,1.44,3.073,-0.234,25.2,38.8,0.5,11309,2016-08-02 15:29:40:213
-0.037,-9.659,-0.453,1.44,3.073,-0.234,25.2,38.8,0.5,11409,2016-08-02 15:29:40:313
3.111,-12.685,-0.804,-0.136,0.518,0.481,27.4,36.8,-3.7,11510,2016-08-02 15:29:40:414
3.111,-12.685,-0.804,-0.136,0.518,0.481,27.4,36.8,-3.7,11609,2016-08-02 15:29:40:513
-5.319,-13.527,3.663,-2.231,0.685,-0.676,30.1,33.8,-6.7,11709,2016-08-02 15:29:40:613
-0.147,-6.894,-1.316,-2.231,0.685,-0.676,30.1,33.8,-6.7,11811,2016-08-02 15:29:40:715
-0.147,-6.894,-1.316,-2.231,0.685,-0.676,29.9,34.1,-4.7,11906,2016-08-02 15:29:40:810
-1.429,-7.223,-2.816,1.319,-0.983,0.261,29.9,34.1,-4.7,12010,2016-08-02 15:29:40:914
-8.516,-19.604,2.718,1.319,-0.983,0.261,27.3,37.0,-0.3,12107,2016-08-02 15:29:41:011
-8.516,-19.604,2.718,1.4,1.313,-0.016,27.3,37.0,-0.3,12209,2016-08-02 15:29:41:113
7.187,-14.902,-1.132,1.4,1.313,-0.016,24.7,39.5,2.1,12309,2016-08-02 15:29:41:213
-0.495,-10.18,-1.281,1.149,0.565,0.469,24.7,39.5,2.1,12408,2016-08-02 15:29:41:312
-0.495,-10.18,-1.281,1.149,0.565,0.469,26.0,38.3,-2.8,12509,2016-08-02 15:29:41:413
1.833,-11.299,-0.962,1.149,0.565,0.469,26.0,38.3,-2.8,12609,2016-08-02 15:29:41:513
1.833,-11.299,-0.962,-2.118,-1.032,-1.152,28.6,35.2,-7.0,12708,2016-08-02 15:29:41:612
-5.116,-12.97,3.681,-2.118,-1.032,-1.152,28.6,35.2,-7.0,12810,2016-08-02 15:29:41:714
-0.455,-5.674,-0.032,-0.892,0.578,-0.929,29.8,33.7,-8.0,12907,2016-08-02 15:29:41:811
-0.455,-5.674,-0.032,-0.892,0.578,-0.929,29.8,33.7,-8.0,13009,2016-08-02 15:29:41:913
3.873,-16.825,-8.032,-0.892,0.578,-0.929,27.3,35.6,-2.5,13109,2016-08-02 15:29:42:013
-4.159,-11.703,2.378,-0.645,-1.286,-0.387,27.3,35.6,-2.5,13210,2016-08-02 15:29:42:114
-4.159,-11.703,2.378,-0.645,-1.286,-0.387,24.5,38.6,1.9,13308,2016-08-02 15:29:42:212
4.243,-12.64,-4.158,1.047,-2.186,1.241,24.5,38.6,1.9,13406,2016-08-02 15:29:42:310
4.243,-12.64,-4.158,1.047,-2.186,1.241,24.3,38.5,0.4,13511,2016-08-02 15:29:42:415
-0.7,-9.795,-1.242,1.047,-2.186,1.241,24.3,38.5,0.4,13608,2016-08-02 15:29:42:512
2.596,-11.674,0.285,0.907,0.625,0.679,26.1,36.8,-4.9,13707,2016-08-02 15:29:42:611
2.596,-11.674,0.285,0.907,0.625,0.679,26.1,36.8,-4.9,13808,2016-08-02 15:29:42:712
-3.819,-15.137,5.567,-2.519,-0.078,-0.698,28.0,34.1,-8.2,13908,2016-08-02 15:29:42:812
-3.819,-15.137,5.567,-2.519,-0.078,-0.698,28.0,34.1,-8.2,14007,2016-08-02 15:29:42:911
-0.466,-5.144,0.867,0.173,-2.203,-0.333,27.4,34.1,-4.4,14109,2016-08-02 15:29:43:013
-0.466,-5.144,0.867,0.173,-2.203,-0.333,27.4,34.1,-4.4,14209,2016-08-02 15:29:43:113
5.917,-19.599,-12.386,0.173,-2.203,-0.333,25.5,36.2,0.8,14312,2016-08-02 15:29:43:216
-3.211,-2.911,3.606,-0.916,-1.225,0.594,25.5,36.2,0.8,14408,2016-08-02 15:29:43:312
-3.211,-2.911,3.606,-0.916,-1.225,0.594,23.9,38.0,2.9,14508,2016-08-02 15:29:43:412
-3.485,-7.644,1.784,1.033,2.158,0.095,23.9,38.0,2.9,14608,2016-08-02 15:29:43:512
-3.485,-7.644,1.784,1.033,2.158,0.095,25.2,37.1,-1.4,14706,2016-08-02 15:29:43:610
1.552,-12.267,-2.151,1.033,2.158,0.095,25.2,37.1,-1.4,14807,2016-08-02 15:29:43:711
1.552,-12.267,-2.151,-0.547,0.802,0.386,27.8,34.3,-5.3,14908,2016-08-02 15:29:43:812
-2.293,-15.759,2.232,-0.547,0.802,0.386,27.8,34.3,-5.3,15008,2016-08-02 15:29:43:912
-2.293,-15.759,2.232,-1.716,1.644,-0.94,29.3,33.1,-6.5,15106,2016-08-02 15:29:44:010
0.317,-6.311,-0.813,-1.716,1.644,-0.94,29.3,33.1,-6.5,15208,2016-08-02 15:29:44:112
-0.227,-16.314,-9.652,1.984,-0.677,0.483,27.7,34.7,-1.8,15308,2016-08-02 15:29:44:212
-0.227,-16.314,-9.652,1.984,-0.677,0.483,27.7,34.7,-1.8,15407,2016-08-02 15:29:44:311
-3.388,-7.186,-4.48,1.984,-0.677,0.483,24.4,38.0,1.4,15508,2016-08-02 15:29:44:412
-3.388,-7.186,-4.48,1.803,2.72,0.868,24.4,38.0,1.4,15606,2016-08-02 15:29:44:510
-0.119,-6.592,-1.671,1.803,2.72,0.868,23.6,39.1,-0.5,15706,2016-08-02 15:29:44:610
-0.119,-6.592,-1.671,0.847,1.069,0.828,23.6,39.1,-0.5,15808,2016-08-02 15:29:44:712
2.693,-11.42,-0.393,0.847,1.069,0.828,25.8,36.7,-6.3,15908,2016-08-02 15:29:44:812
2.693,-11.42,-0.393,0.847,1.069,0.828,25.8,36.7,-6.3,16008,2016-08-02 15:29:44:912
-3.654,-17.118,-1.447,-2.84,0.168,-1.333,28.5,34.3,-9.1,16108,2016-08-02 15:29:45:012
0.532,-7.989,-1.311,-2.84,0.168,-1.333,28.5,34.3,-9.1,16208,2016-08-02 15:29:45:112
0.532,-7.989,-1.311,-1.447,-0.62,-0.842,27.9,34.7,-4.5,16307,2016-08-02 15:29:45:211
0.444,-12.88,-8.676,-1.447,-0.62,-0.842,27.9,34.7,-4.5,16408,2016-08-02 15:29:45:312
0.444,-12.88,-8.676,-0.567,-0.236,-0.39,27.9,34.7,-4.5,16508,2016-08-02 15:29:45:412
-8.592,-19.609,-16.327,-0.567,-0.236,-0.39,24.8,37.6,0.1,16608,2016-08-02 15:29:45:512
-8.592,-19.609,-16.327,-0.567,-0.236,-0.39,24.8,37.6,0.1,16708,2016-08-02 15:29:45:612
-1.128,-9.346,-2.433,2.156,1.474,-0.192,22.9,39.5,1.4,16808,2016-08-02 15:29:45:712
-1.128,-9.346,-2.433,2.156,1.474,-0.192,22.9,39.5,1.4,16908,2016-08-02 15:29:45:812
0.925,-9.647,-1.14,0.343,0.771,0.603,24.9,38.2,-3.4,17008,2016-08-02 15:29:45:912
1.182,-11.852,-2.359,0.343,0.771,0.603,24.9,38.2,-3.4,17108,2016-08-02 15:29:46:012
1.182,-11.852,-2.359,0.343,0.771,0.603,28.7,34.6,-7.2,17208,2016-08-02 15:29:46:112
0.734,-8.726,0.48,-1.401,-1.764,-0.915,28.7,34.6,-7.2,17308,2016-08-02 15:29:46:212
0.734,-8.726,0.48,-1.401,-1.764,-0.915,29.9,33.8,-8.9,17406,2016-08-02 15:29:46:310
-3.047,-5.145,0.248,1.172,-1.79,0.292,29.9,33.8,-8.9,17507,2016-08-02 15:29:46:411
-3.047,-5.145,0.248,1.172,-1.79,0.292,27.3,36.6,-5.2,17609,2016-08-02 15:29:46:513
-7.272,-17.892,-0.133,-1.4,0.161,1.061,27.3,36.6,-5.2,17708,2016-08-02 15:29:46:612
-7.272,-17.892,-0.133,-1.4,0.161,1.061,23.0,40.5,-3.5,17806,2016-08-02 15:29:46:710
9.325,-17.296,-1.237,-1.4,0.161,1.061,23.0,40.5,-3.5,17908,2016-08-02 15:29:46:812
0.427,-9.992,0.608,0.977,1.324,0.314,22.0,40.4,-6.2,18007,2016-08-02 15:29:46:911
0.427,-9.992,0.608,0.977,1.324,0.314,22.0,40.4,-6.2,18108,2016-08-02 15:29:47:012
-0.192,-14.25,-2.608,-0.541,0.363,-0.721,24.7,37.2,-10.0,18208,2016-08-02 15:29:47:112
-0.192,-14.25,-2.608,-0.541,0.363,-0.721,24.7,37.2,-10.0,18308,2016-08-02 15:29:47:212
0.815,-9.524,-1.734,-0.541,0.363,-0.721,28.0,34.0,-11.7,18408,2016-08-02 15:29:47:312
0.815,-9.524,-1.734,-0.844,1.426,-1.371,28.0,34.0,-11.7,18508,2016-08-02 15:29:47:412
-1.589,-4.526,-0.833,-0.844,1.426,-1.371,26.8,34.7,-5.2,18608,2016-08-02 15:29:47:512
-1.589,-4.526,-0.833,-0.021,-0.973,0.293,26.8,34.7,-5.2,18708,2016-08-02 15:29:47:612
-4.107,-13.145,-0.464,-0.021,-0.973,0.293,24.3,37.6,0.5,18808,2016-08-02 15:29:47:712
4.004,-16.39,3.156,0.159,-0.578,1.819,24.3,37.6,0.5,18908,2016-08-02 15:29:47:812
4.004,-16.39,3.156,0.159,-0.578,1.819,22.8,38.8,1.8,19008,2016-08-02 15:29:47:912
-1.463,-9.845,-1.541,0.159,-0.578,1.819,22.8,38.8,1.8,19106,2016-08-02 15:29:48:010
-1.463,-9.845,-1.541,0.767,1.435,0.833,25.3,37.0,-3.4,19207,2016-08-02 15:29:48:111
1.426,-11.46,1.498,0.767,1.435,0.833,25.3,37.0,-3.4,19307,2016-08-02 15:29:48:211
-4.762,-13.78,2.495,-3.01,0.421,-0.758,28.0,34.4,-6.3,19407,2016-08-02 15:29:48:311
-4.762,-13.78,2.495,-3.01,0.421,-0.758,28.0,34.4,-6.3,19506,2016-08-02 15:29:48:410
-0.489,-7.459,-0.884,-3.01,0.421,-0.758,28.6,33.7,-4.9,19606,2016-08-02 15:29:48:510
-0.489,-7.459,-0.884,-0.931,-0.037,-0.539,28.6,33.7,-4.9,19707,2016-08-02 15:29:48:611
-0.475,-8.569,-4.059,-0.931,-0.037,-0.539,26.2,35.3,1.5,19806,2016-08-02 15:29:48:710
-6.223,-15.122,3.759,-0.696,1.091,-0.344,26.2,35.3,1.5,19906,2016-08-02 15:29:48:810
-6.223,-15.122,3.759,-0.696,1.091,-0.344,24.2,37.4,5.4,20008,2016-08-02 15:29:48:912
5.58,-11.848,-1.473,1.483,1.131,-0.381,24.2,37.4,5.4,20107,2016-08-02 15:29:49:011
0.775,-10.174,-1.34,1.483,1.131,-0.381,24.8,37.9,2.8,20206,2016-08-02 15:29:49:110
0.775,-10.174,-1.34,1.483,1.131,-0.381,24.8,37.9,2.8,20307,2016-08-02 15:29:49:211
-0.49,-11.195,1.654,0.457,0.18,0.075,27.1,36.0,-2.6,20406,2016-08-02 15:29:49:310
-0.49,-11.195,1.654,0.457,0.18,0.075,27.1,36.0,-2.6,20508,2016-08-02 15:29:49:412
-0.245,-12.925,-0.743,-2.049,-0.515,-0.765,29.5,34.1,-6.3,20608,2016-08-02 15:29:49:512
1.379,-8.452,0.424,-2.049,-0.515,-0.765,29.5,34.1,-6.3,20707,2016-08-02 15:29:49:611
1.379,-8.452,0.424,-2.049,-0.515,-0.765,29.0,34.6,-2.9,20808,2016-08-02 15:29:49:712
-1.912,-4.758,-0.926,0.584,-1.807,-0.225,29.0,34.6,-2.9,20909,2016-08-02 15:29:49:813
-3.824,-12.832,-1.487,0.584,-1.807,-0.225,26.3,37.3,1.1,21007,2016-08-02 15:29:49:911
-3.824,-12.832,-1.487,-1.408,-1.134,0.838,26.3,37.3,1.1,21108,2016-08-02 15:29:50:012
-1.244,-14.125,5.553,-1.408,-1.134,0.838,24.5,39.3,1.4,21207,2016-08-02 15:29:50:111
-1.244,-14.125,5.553,0.748,1.456,0.312,24.5,39.3,1.4,21307,2016-08-02 15:29:50:211
-0.467,-8.999,1.984,0.748,1.456,0.312,25.0,38.9,-3.0,21408,2016-08-02 15:29:50:312
1.335,-9.714,-1.562,0.748,1.456,0.312,25.0,38.9,-3.0,21508,2016-08-02 15:29:50:412
1.335,-9.714,-1.562,-0.166,0.596,0.413,27.7,36.4,-6.4,21608,2016-08-02 15:29:50:512
1.104,-10.422,-5.293,-0.166,0.596,0.413,27.7,36.4,-6.4,21707,2016-08-02 15:29:50:611
-4.082,-12.947,-7.468,-1.143,-1.035,-1.831,30.3,34.5,-6.2,21806,2016-08-02 15:29:50:710
-4.082,-12.947,-7.468,-1.143,-1.035,-1.831,30.3,34.5,-6.2,21907,2016-08-02 15:29:50:811
-3.505,-2.731,0.332,-1.143,-1.035,-1.831,28.9,35.8,-2.3,22006,2016-08-02 15:29:50:910
-3.505,-2.731,0.332,1.104,-2.663,0.546,28.9,35.8,-2.3,22107,2016-08-02 15:29:51:011
7.816,-17.745,-16.182,1.104,-2.663,0.546,26.0,39.0,4.0,22207,2016-08-02 15:29:51:111
-7.228,0.23,2.257,-1.586,-1.723,-0.074,26.0,39.0,4.0,22307,2016-08-02 15:29:51:211
-7.228,0.23,2.257,-1.586,-1.723,-0.074,26.0,39.0,4.0,22407,2016-08-02 15:29:51:311
-3.564,-7.617,-4.213,0.826,1.991,0.737,24.5,40.9,2.8,22507,2016-08-02 15:29:51:411
-3.564,-7.617,-4.213,0.826,1.991,0.737,24.5,40.9,2.8,22608,2016-08-02 15:29:51:512
-0.296,-9.865,-2.288,0.826,1.991,0.737,26.6,39.5,-2.1,22707,2016-08-02 15:29:51:611
-1.434,-12.601,-2.892,-0.4,0.265,-0.589,26.6,39.5,-2.1,22807,2016-08-02 15:29:51:711
-1.434,-12.601,-2.892,-0.4,0.265,-0.589,29.0,36.2,-5.5,22906,2016-08-02 15:29:51:810
0.505,-8.629,-0.326,-1.05,1.889,-1.121,29.0,36.2,-5.5,23006,2016-08-02 15:29:51:910
0.505,-8.629,-0.326,-1.05,1.889,-1.121,29.3,35.1,-4.5,23107,2016-08-02 15:29:52:011
-1.174,-8.595,-3.961,-1.05,1.889,-1.121,29.3,35.1,-4.5,23207,2016-08-02 15:29:52:111
-1.174,-8.595,-3.961,-0.134,-0.725,0.403,27.2,36.2,1.1,23307,2016-08-02 15:29:52:211
-2.872,-11.022,3.627,-0.134,-0.725,0.403,27.2,36.2,1.1,23406,2016-08-02 15:29:52:310
-2.872,-11.022,3.627,0.791,-1.366,0.801,24.7,38.3,3.8,23507,2016-08-02 15:29:52:411
-4.511,-8.302,-3.186,0.791,-1.366,0.801,24.7,38.3,3.8,23608,2016-08-02 15:29:52:512
0.59,-9.86,-0.924,0.783,0.963,0.752,25.1,38.2,1.8,23706,2016-08-02 15:29:52:610
0.59,-9.86,-0.924,0.783,0.963,0.752,25.1,38.2,1.8,23808,2016-08-02 15:29:52:712
-1.374,-15.322,0.673,0.783,0.963,0.752,27.5,35.8,-4.6,23908,2016-08-02 15:29:52:812
-1.374,-15.322,0.673,-2.64,0.24,-1.065,27.5,35.8,-4.6,24007,2016-08-02 15:29:52:911
2.393,-7.204,1.156,-2.64,0.24,-1.065,29.3,33.7,-4.6,24107,2016-08-02 15:29:53:011
2.393,-7.204,1.156,0.356,-2.599,-0.057,29.3,33.7,-4.6,24208,2016-08-02 15:29:53:112
-2.433,-7.526,-1.868,0.356,-2.599,-0.057,28.4,33.7,1.3,24307,2016-08-02 15:29:53:211
-2.433,-7.526,-1.868,0.356,-2.599,-0.057,28.4,33.7,1.3,24408,2016-08-02 15:29:53:312
-0.079,-5.519,5.285,-1.39,-1.455,0.251,26.3,35.9,4.9,24507,2016-08-02 15:29:53:411
-3.496,-7.657,-1.812,-1.39,-1.455,0.251,26.3,35.9,4.9,24607,2016-08-02 15:29:53:511
-3.496,-7.657,-1.812,1.136,1.155,0.794,25.8,36.3,2.5,24708,2016-08-02 15:29:53:612
0.908,-10.143,-1.105,1.136,1.155,0.794,25.8,36.3,2.5,24808,2016-08-02 15:29:53:712
0.908,-10.143,-1.105,-1.056,1.117,-0.564,27.7,35.2,-4.0,24907,2016-08-02 15:29:53:811
-7.309,-17.9,2.321,-1.056,1.117,-0.564,27.7,35.2,-4.0,25008,2016-08-02 15:29:53:912
-7.309,-17.9,2.321,-1.056,1.117,-0.564,29.9,33.3,-7.3,25108,2016-08-02 15:29:54:012
0.628,-6.737,0.199,-1.187,1.027,-0.787,29.9,33.3,-7.3,25207,2016-08-02 15:29:54:111
0.628,-6.737,0.199,-1.187,1.027,-0.787,29.2,34.2,-3.6,25308,2016-08-02 15:29:54:212
-1.63,-15.663,-7.746,-0.989,-1.191,-0.441,29.2,34.2,-3.6,25408,2016-08-02 15:29:54:312
-0.196,-8.528,4.15,-0.989,-1.191,-0.441,27.1,37.2,0.1,25508,2016-08-02 15:29:54:412
-0.196,-8.528,4.15,-0.989,-1.191,-0.441,27.1,37.2,0.1,25609,2016-08-02 15:29:54:513
-4.083,-7.545,-2.253,1.23,-0.414,0.929,25.3,38.8,0.9,25709,2016-08-02 15:29:54:613
-4.083,-7.545,-2.253,1.23,-0.414,0.929,25.3,38.8,0.9,25807,2016-08-02 15:29:54:711
-1.263,-10.403,-2.378,1.014,1.59,0.693,26.6,37.3,-4.1,25908,2016-08-02 15:29:54:812
-1.263,-10.403,-2.378,1.014,1.59,0.693,26.6,37.3,-4.1,26006,2016-08-02 15:29:54:910
-3.043,-15.553,-1.982,1.014,1.59,0.693,29.2,34.4,-6.1,26107,2016-08-02 15:29:55:011
-3.043,-15.553,-1.982,-2.742,-0.514,-0.631,29.2,34.4,-6.1,26208,2016-08-02 15:29:55:112
1.56,-8.726,-0.408,-2.742,-0.514,-0.631,29.7,33.2,-3.7,26311,2016-08-02 15:29:55:215
-0.939,-6.07,-5.515,0.203,-3.196,-0.245,29.7,33.2,-3.7,26408,2016-08-02 15:29:55:312
-0.939,-6.07,-5.515,0.203,-3.196,-0.245,28.3,35.1,1.9,26508,2016-08-02 15:29:55:412
-7.523,-18.209,0.821,-0.799,-0.822,0.485,28.3,35.1,1.9,26609,2016-08-02 15:29:55:513
-7.523,-18.209,0.821,-0.799,-0.822,0.485,26.0,38.1,4.3,26708,2016-08-02 15:29:55:612
-5.929,-6.378,-2.925,-0.799,-0.822,0.485,26.0,38.1,4.3,26808,2016-08-02 15:29:55:712
-5.929,-6.378,-2.925,1.356,1.294,0.466,26.2,38.1,-1.0,26908,2016-08-02 15:29:55:812
-0.867,-9.548,-3.172,1.356,1.294,0.466,26.2,38.1,-1.0,27009,2016-08-02 15:29:55:913
-0.867,-9.548,-3.172,-0.79,0.421,0.213,28.5,35.2,-6.0,27108,2016-08-02 15:29:56:012
3.091,-13.509,-4.501,-0.79,0.421,0.213,28.5,35.2,-6.0,27208,2016-08-02 15:29:56:112
3.091,-13.509,-4.501,-0.79,0.421,0.213,30.5,34.0,-7.7,27307,2016-08-02 15:29:56:211
-0.006,-9.686,0.571,-0.803,1.097,-0.921,30.5,34.0,-7.7,27409,2016-08-02 15:29:56:313
0.405,-4.173,-1.353,-0.803,1.097,-0.921,28.6,35.8,-2.2,27507,2016-08-02 15:29:56:411
0.405,-4.173,-1.353,1.443,-0.722,0.152,28.6,35.8,-2.2,27609,2016-08-02 15:29:56:513
-7.935,-16.376,1.817,1.443,-0.722,0.152,28.6,35.8,-2.2,27707,2016-08-02 15:29:56:611
-7.935,-16.376,1.817,1.59,1.492,0.412,25.8,39.1,1.3,27808,2016-08-02 15:29:56:712
0.824,-11.746,-1.537,1.59,1.492,0.412,24.7,40.0,0.7,27911,2016-08-02 15:29:56:815
0.824,-11.746,-1.537,1.59,1.492,0.412,24.7,40.0,0.7,28008,2016-08-02 15:29:56:912
3.281,-10.042,-2.037,1.396,0.995,0.65,24.7,40.0,0.7,28107,2016-08-02 15:29:57:011
-0.002,-10.959,-5.273,1.396,0.995,0.65,26.3,38.1,-4.0,28208,2016-08-02 15:29:57:112
-0.002,-10.959,-5.273,-3.8,0.447,-0.954,26.3,38.1,-4.0,28309,2016-08-02 15:29:57:213
-2.577,-12.198,-4.562,-3.8,0.447,-0.954,29.3,35.2,-6.1,28409,2016-08-02 15:29:57:313
-2.577,-12.198,-4.562,-0.943,-0.985,-0.59,29.3,35.2,-6.1,28511,2016-08-02 15:29:57:415
-3.324,-4.654,0.642,-0.943,-0.985,-0.59,29.5,35.0,-1.5,28608,2016-08-02 15:29:57:512
-3.324,-4.654,0.642,-0.943,-0.985,-0.59,29.5,35.0,-1.5,28708,2016-08-02 15:29:57:612
-5.923,-14.676,3.184,-0.545,0.33,-0.586,27.1,37.1,2.3,28810,2016-08-02 15:29:57:714
-5.923,-14.676,3.184,-0.545,0.33,-0.586,27.1,37.1,2.3,28908,2016-08-02 15:29:57:812
1.874,-10.837,-4.098,1.612,1.996,0.151,25.2,38.9,2.2,29008,2016-08-02 15:29:57:912
1.874,-10.837,-4.098,1.612,1.996,0.151,25.2,38.9,2.2,29110,2016-08-02 15:29:58:014
2.148,-9.531,-0.77,1.612,1.996,0.151,26.9,37.4,-4.0,29206,2016-08-02 15:29:58:110
0.561,-10.537,-2.855,-0.437,1.22,0.323,26.9,37.4,-4.0,29308,2016-08-02 15:29:58:212
0.561,-10.537,-2.855,-0.437,1.22,0.323,29.8,34.3,-7.6,29413,2016-08-02 15:29:58:317
1.853,-6.658,0.751,-1.095,2.749,-0.94,29.8,34.3,-7.6,29509,2016-08-02 15:29:58:413
1.853,-6.658,0.751,-1.095,2.749,-0.94,29.7,34.4,-4.0,29608,2016-08-02 15:29:58:512
-1.681,-4.315,-0.455,-1.095,2.749,-0.94,29.7,34.4,-4.0,29710,2016-08-02 15:29:58:614
-1.681,-4.315,-0.455,-0.177,-0.629,0.325,26.9,36.8,1.1,29806,2016-08-02 15:29:58:710
-2.043,-18.869,5.38,-0.177,-0.629,0.325,26.9,36.8,1.1,29907,2016-08-02 15:29:58:811
-0.153,-8.387,-0.621,0.946,1.348,1.287,24.5,39.2,2.4,30007,2016-08-02 15:29:58:911
-0.153,-8.387,-0.621,0.946,1.348,1.287,24.5,39.2,2.4,30107,2016-08-02 15:29:59:011
0.475,-8.683,1.952,0.605,1.87,0.884,26.0,37.5,-3.2,30206,2016-08-02 15:29:59:110
0.475,-8.683,1.952,0.605,1.87,0.884,26.0,37.5,-3.2,30306,2016-08-02 15:29:59:210
-1.474,-13.441,-3.706,0.605,1.87,0.884,29.3,33.5,-7.1,30406,2016-08-02 15:29:59:310
-1.474,-13.441,-3.706,-2.61,0.002,-0.892,29.3,33.5,-7.1,30507,2016-08-02 15:29:59:411
1.15,-7.736,1.302,-2.61,0.002,-0.892,31.5,31.3,-6.2,30607,2016-08-02 15:29:59:511
1.15,-7.736,1.302,0.174,-2.819,-0.141,31.5,31.3,-6.2,30707,2016-08-02 15:29:59:611
-2.734,-9.221,-3.57,0.174,-2.819,-0.141,29.9,32.9,-0.6,30807,2016-08-02 15:29:59:711
-2.734,-9.221,-3.57,0.174,-2.819,-0.141,29.9,32.9,-0.6,30906,2016-08-02 15:29:59:810
2.996,-0.703,8.52,-1.642,-0.524,0.702,26.6,36.4,2.6,31007,2016-08-02 15:29:59:911
-1.575,-6.937,0.272,-1.642,-0.524,0.702,26.6,36.4,2.6,31106,2016-08-02 15:30:00:010
-1.575,-6.937,0.272,1.105,-0.185,0.568,26.5,36.9,0.5,31206,2016-08-02 15:30:00:110
0.897,-8.759,-1.16,1.105,-0.185,0.568,26.5,36.9,0.5,31306,2016-08-02 15:30:00:210
0.897,-8.759,-1.16,-0.979,0.732,0.182,28.3,34.6,-3.8,31406,2016-08-02 15:30:00:310
-2.378,-14.715,0.181,-0.979,0.732,0.182,28.3,34.6,-3.8,31507,2016-08-02 15:30:00:411
-2.378,-14.715,0.181,-0.979,0.732,0.182,31.1,31.7,-5.5,31606,2016-08-02 15:30:00:510
-3.169,-6.022,0.789,-0.652,1.915,-1.058,31.1,31.7,-5.5,31707,2016-08-02 15:30:00:611
-3.169,-6.022,0.789,-0.652,1.915,-1.058,30.0,32.8,-2.8,31807,2016-08-02 15:30:00:711
-3.336,-9.74,-3.018,-1.281,-0.726,-1.062,30.0,32.8,-2.8,31906,2016-08-02 15:30:00:810
2.53,-7.493,5.034,-1.281,-0.726,-1.062,27.1,35.8,-0.8,32006,2016-08-02 15:30:00:910
2.53,-7.493,5.034,-1.281,-0.726,-1.062,27.1,35.8,-0.8,32106,2016-08-02 15:30:01:010
-1.909,-7.864,-1.261,0.567,-0.331,1.389,24.4,38.3,-1.3,32206,2016-08-02 15:30:01:110
-1.909,-7.864,-1.261,0.567,-0.331,1.389,24.4,38.3,-1.3,32307,2016-08-02 15:30:01:211
2.477,-9.853,-1.147,0.826,1.864,1.003,26.0,36.2,-5.7,32408,2016-08-02 15:30:01:312
2.477,-9.853,-1.147,0.826,1.864,1.003,26.0,36.2,-5.7,32507,2016-08-02 15:30:01:411
-4.034,-19.41,0.748,-2.054,0.48,-0.972,29.0,33.0,-7.7,32608,2016-08-02 15:30:01:512
-4.034,-19.41,0.748,-2.054,0.48,-0.972,29.0,33.0,-7.7,32708,2016-08-02 15:30:01:612
-0.343,-6.675,-0.457,-2.054,0.48,-0.972,29.2,32.9,-3.4,32808,2016-08-02 15:30:01:712
1.025,-19.609,-18.544,1.188,-2.915,0.192,29.2,32.9,-3.4,32908,2016-08-02 15:30:01:812
1.025,-19.609,-18.544,1.188,-2.915,0.192,27.4,35.1,1.6,33008,2016-08-02 15:30:01:912
-0.217,-2.826,2.279,-0.046,-0.313,-0.193,27.4,35.1,1.6,33108,2016-08-02 15:30:02:012
-0.217,-2.826,2.279,-0.046,-0.313,-0.193,25.2,37.6,4.4,33208,2016-08-02 15:30:02:112
-3.49,-7.454,-2.354,-0.046,-0.313,-0.193,25.2,37.6,4.4,33307,2016-08-02 15:30:02:211
-3.49,-7.454,-2.354,1.196,2.005,0.774,27.2,36.2,-1.0,33407,2016-08-02 15:30:02:311
1.134,-11.671,-0.974,1.196,2.005,0.774,27.2,36.2,-1.0,33508,2016-08-02 15:30:02:412
1.134,-11.671,-0.974,-1.457,-0.411,-1.049,30.2,32.6,-4.3,33608,2016-08-02 15:30:02:512
-6.268,-16.957,5.514,-1.457,-0.411,-1.049,30.2,32.6,-4.3,33708,2016-08-02 15:30:02:612
-0.132,-6.563,-1.137,-1.357,-0.946,-1.026,31.2,31.6,-4.1,33808,2016-08-02 15:30:02:712
-0.132,-6.563,-1.137,-1.357,-0.946,-1.026,31.2,31.6,-4.1,33908,2016-08-02 15:30:02:812
6.674,-19.609,-19.562,-1.357,-0.946,-1.026,28.7,33.7,0.1,34008,2016-08-02 15:30:02:912
6.674,-19.609,-19.562,-1.384,-1.911,-1.234,28.7,33.7,0.1,34108,2016-08-02 15:30:03:012
1.487,-3.923,4.737,-1.384,-1.911,-1.234,25.6,36.8,2.5,34208,2016-08-02 15:30:03:112
1.487,-3.923,4.737,3.26,1.231,-0.386,25.6,36.8,2.5,34308,2016-08-02 15:30:03:212
-3.068,-7.596,2.503,3.26,1.231,-0.386,26.3,36.7,-1.3,34407,2016-08-02 15:30:03:311
-3.068,-7.596,2.503,3.26,1.231,-0.386,26.3,36.7,-1.3,34508,2016-08-02 15:30:03:412
0.127,-11.015,-2.195,0.137,0.943,0.271,28.8,34.1,-4.1,34608,2016-08-02 15:30:03:512
-6.947,-18.359,-3.196,0.137,0.943,0.271,28.8,34.1,-4.1,34708,2016-08-02 15:30:03:612
-6.947,-18.359,-3.196,-1.324,1.54,-0.549,28.8,34.1,-4.1,34808,2016-08-02 15:30:03:712
-2.962,-0.417,1.704,-1.324,1.54,-0.549,30.4,32.3,-2.3,34908,2016-08-02 15:30:03:812
-2.962,-0.417,1.704,1.887,-1.594,0.571,30.4,32.3,-2.3,35008,2016-08-02 15:30:03:912
0.433,-8.918,-6.211,1.887,-1.594,0.571,28.8,33.7,3.1,35108,2016-08-02 15:30:04:012
0.433,-8.918,-6.211,1.887,-1.594,0.571,28.8,33.7,3.1,35208,2016-08-02 15:30:04:112
2.376,-2.971,6.662,1.218,1.287,0.024,27.2,36.2,4.9,35308,2016-08-02 15:30:04:212
2.376,-2.971,6.662,1.218,1.287,0.024,27.2,36.2,4.9,35408,2016-08-02 15:30:04:312
1.414,-8.431,0.786,1.276,0.499,0.563,27.7,36.6,1.8,35508,2016-08-02 15:30:04:412
0.758,-12.425,-0.545,1.276,0.499,0.563,27.7,36.6,1.8,35608,2016-08-02 15:30:04:512
0.758,-12.425,-0.545,1.276,0.499,0.563,29.9,35.3,-1.6,35708,2016-08-02 15:30:04:612
-6.154,-18.354,8.152,-2.097,0.091,-1.222,29.9,35.3,-1.6,35807,2016-08-02 15:30:04:711
-6.154,-18.354,8.152,-2.097,0.091,-1.222,32.6,33.2,-3.5,35909,2016-08-02 15:30:04:813
-2.213,-3.78,-0.136,-1.353,-0.076,-0.234,32.6,33.2,-3.5,36009,2016-08-02 15:30:04:913
-2.213,-3.78,-0.136,-1.353,-0.076,-0.234,30.1,34.4,1.6,36107,2016-08-02 15:30:05:011
1.9,-18.418,-18.161,-0.499,2.362,-0.447,30.1,34.4,1.6,36208,2016-08-02 15:30:05:112
1.9,-18.418,-18.161,-0.499,2.362,-0.447,27.0,37.7,5.4,36307,2016-08-02 15:30:05:211
3.759,-4.676,4.31,-0.499,2.362,-0.447,27.0,37.7,5.4,36408,2016-08-02 15:30:05:312
-3.384,-7.257,-0.557,3.103,-0.001,-0.748,24.7,39.5,5.2,36510,2016-08-02 15:30:05:414
-3.384,-7.257,-0.557,3.103,-0.001,-0.748,24.7,39.5,5.2,36608,2016-08-02 15:30:05:512
1.837,-11.749,-1.248,0.243,0.971,0.804,26.4,38.4,-1.9,36709,2016-08-02 15:30:05:613
1.837,-11.749,-1.248,0.243,0.971,0.804,26.4,38.4,-1.9,36808,2016-08-02 15:30:05:712
-4.454,-16.463,4.197,0.243,0.971,0.804,29.6,34.6,-6.0,36908,2016-08-02 15:30:05:812
-4.454,-16.463,4.197,-1.165,-0.215,-1.05,29.6,34.6,-6.0,37008,2016-08-02 15:30:05:912
-1.265,-3.044,2.024,-1.165,-0.215,-1.05,29.6,34.5,-4.1,37108,2016-08-02 15:30:06:012
-1.265,-3.044,2.024,2.064,-1.683,0.77,29.6,34.5,-4.1,37207,2016-08-02 15:30:06:111
5.394,-12.818,-9.319,2.064,-1.683,0.77,27.4,36.6,-0.8,37306,2016-08-02 15:30:06:210
-2.96,-4.773,6.295,1.421,0.719,-0.102,27.4,36.6,-0.8,37408,2016-08-02 15:30:06:312
-2.96,-4.773,6.295,1.421,0.719,-0.102,24.3,39.4,-0.8,37508,2016-08-02 15:30:06:412
0.085,-6.705,1.721,1.421,0.719,-0.102,24.3,39.4,-0.8,37608,2016-08-02 15:30:06:512
0.085,-6.705,1.721,1.083,0.949,0.635,25.6,37.7,-6.7,37707,2016-08-02 15:30:06:611
5.415,-9.826,-1.584,1.083,0.949,0.635,25.6,37.7,-6.7,37808,2016-08-02 15:30:06:712
5.415,-9.826,-1.584,-2.625,-0.031,-1.873,29.3,33.5,-9.8,37908,2016-08-02 15:30:06:812
-3.825,-14.554,-4.497,-2.625,-0.031,-1.873,29.3,33.5,-9.8,38008,2016-08-02 15:30:06:912
-3.825,-14.554,-4.497,-2.625,-0.031,-1.873,30.6,32.3,-6.8,38108,2016-08-02 15:30:07:012
-3.504,-0.205,0.673,-0.248,-1.473,-0.123,30.6,32.3,-6.8,38207,2016-08-02 15:30:07:111
-3.579,-5.958,-2.013,-0.248,-1.473,-0.123,28.2,34.9,-1.4,38306,2016-08-02 15:30:07:210
-3.579,-5.958,-2.013,0.219,-1.017,1.307,28.2,34.9,-1.4,38410,2016-08-02 15:30:07:314
-2.782,-17.448,4.557,0.219,-1.017,1.307,24.0,38.8,0.7,38508,2016-08-02 15:30:07:412
-2.782,-17.448,4.557,1.355,0.367,0.436,24.0,38.8,0.7,38608,2016-08-02 15:30:07:512
1.104,-8.967,-0.946,1.355,0.367,0.436,24.7,38.0,-4.7,38707,2016-08-02 15:30:07:611
1.104,-8.967,-0.946,1.355,0.367,0.436,24.7,38.0,-4.7,38808,2016-08-02 15:30:07:712
3.609,-11.315,-4.629,-0.896,1.035,-0.076,27.7,34.2,-8.9,38908,2016-08-02 15:30:07:812
3.609,-11.315,-4.629,-0.896,1.035,-0.076,27.7,34.2,-8.9,39006,2016-08-02 15:30:07:910
4.784,-10.084,-0.057,-0.839,2.07,-1.209,29.3,32.6,-7.4,39108,2016-08-02 15:30:08:012
-2.278,0.229,0.543,-0.839,2.07,-1.209,29.3,32.6,-7.4,39208,2016-08-02 15:30:08:112
-2.278,0.229,0.543,-0.839,2.07,-1.209,27.4,34.9,-1.1,39308,2016-08-02 15:30:08:212
-12.26,-19.609,-0.529,-1.812,-1.742,-0.839,27.4,34.9,-1.1,39408,2016-08-02 15:30:08:312
-12.26,-19.609,-0.529,-1.812,-1.742,-0.839,24.5,38.5,2.9,39507,2016-08-02 15:30:08:411
3.937,-12.286,-3.172,1.524,-0.347,0.668,24.5,38.5,2.9,39608,2016-08-02 15:30:08:512
3.937,-12.286,-3.172,1.524,-0.347,0.668,25.8,37.7,-0.5,39707,2016-08-02 15:30:08:611
0.332,-9.626,-2.138,0.921,0.834,0.838,25.8,37.7,-0.5,39808,2016-08-02 15:30:08:712
0.332,-9.626,-2.138,0.921,0.834,0.838,28.8,35.3,-4.1,39910,2016-08-02 15:30:08:814
2.819,-11.611,-2.988,0.921,0.834,0.838,28.8,35.3,-4.1,40007,2016-08-02 15:30:08:911
-0.272,-12.373,-4.01,-2.658,-0.049,-1.429,28.8,35.3,-4.1,40108,2016-08-02 15:30:09:012
-0.272,-12.373,-4.01,-2.658,-0.049,-1.429,31.3,33.6,-4.4,40208,2016-08-02 15:30:09:112
-2.577,-1.684,1.862,-0.046,-3.408,-0.362,31.3,33.6,-4.4,40308,2016-08-02 15:30:09:212
-2.577,-1.684,1.862,-0.046,-3.408,-0.362,29.3,35.0,1.5,40407,2016-08-02 15:30:09:311
0.166,-6.331,-3.88,-0.046,-3.408,-0.362,29.3,35.0,1.5,40508,2016-08-02 15:30:09:412
0.166,-6.331,-3.88,-0.248,-0.75,1.491,25.7,38.4,6.1,40608,2016-08-02 15:30:09:512
-1.879,-12.862,5.407,-0.248,-0.75,1.491,25.7,38.4,6.1,40706,2016-08-02 15:30:09:610
-1.879,-12.862,5.407,1.12,1.276,0.392,24.2,38.7,5.6,40808,2016-08-02 15:30:09:712
0.766,-9.895,0.068,1.12,1.276,0.392,24.2,38.7,5.6,40908,2016-08-02 15:30:09:812
4.931,-10.974,-2.448,-0.955,0.923,0.113,26.3,37.4,-0.5,41007,2016-08-02 15:30:09:911
4.931,-10.974,-2.448,-0.955,0.923,0.113,26.3,37.4,-0.5,41106,2016-08-02 15:30:10:010
0.397,-11.338,-4.222,-0.955,0.923,0.113,29.2,34.8,-3.4,41207,2016-08-02 15:30:10:111
0.397,-11.338,-4.222,-0.943,1.605,-0.77,29.2,34.8,-3.4,41306,2016-08-02 15:30:10:210
-2.458,-0.701,1.475,-0.943,1.605,-0.77,28.8,34.7,-0.2,41408,2016-08-02 15:30:10:312
-2.458,-0.701,1.475,-2.115,-0.321,-1.437,28.8,34.7,-0.2,41508,2016-08-02 15:30:10:412
-7.708,-12.687,0.595,-2.115,-0.321,-1.437,26.6,36.4,3.6,41607,2016-08-02 15:30:10:511
-7.708,-12.687,0.595,-2.115,-0.321,-1.437,26.6,36.4,3.6,41708,2016-08-02 15:30:10:612
3.032,-15.391,0.07,2.233,-0.604,0.99,24.7,37.9,3.7,41808,2016-08-02 15:30:10:712
4.1,-10.398,0.053,2.233,-0.604,0.99,24.7,37.9,3.7,41911,2016-08-02 15:30:10:815
4.1,-10.398,0.053,1.13,1.255,0.329,26.7,37.0,-2.8,42007,2016-08-02 15:30:10:911
2.764,-11.325,-2.12,1.13,1.255,0.329,26.7,37.0,-2.8,42109,2016-08-02 15:30:11:013
2.764,-11.325,-2.12,-1.941,-0.801,-0.798,29.6,34.2,-6.7,42207,2016-08-02 15:30:11:111
2.004,-9.278,0.498,-1.941,-0.801,-0.798,29.6,34.2,-6.7,42306,2016-08-02 15:30:11:210
2.004,-9.278,0.498,-1.941,-0.801,-0.798,29.9,33.7,-4.7,42408,2016-08-02 15:30:11:312
-2.298,-3.066,-0.13,1.128,-2.491,0.226,29.9,33.7,-4.7,42507,2016-08-02 15:30:11:411
-2.298,-3.066,-0.13,1.128,-2.491,0.226,28.2,35.6,0.1,42608,2016-08-02 15:30:11:512
-7.009,-19.609,0.557,0.779,0.671,-0.202,28.2,35.6,0.1,42708,2016-08-02 15:30:11:612
-2.65,-8.856,-2.995,0.779,0.671,-0.202,26.0,38.2,1.9,42806,2016-08-02 15:30:11:710
-2.65,-8.856,-2.995,0.779,0.671,-0.202,26.0,38.2,1.9,42907,2016-08-02 15:30:11:811
0.926,-9.689,-3.089,1.409,1.211,0.997,26.7,37.6,-3.0,43009,2016-08-02 15:30:11:913
0.926,-9.689,-3.089,1.409,1.211,0.997,26.7,37.6,-3.0,43106,2016-08-02 15:30:12:010
-2.707,-18.414,-0.474,-3.369,0.803,-1.475,29.8,34.3,-6.5,43207,2016-08-02 15:30:12:111
-2.707,-18.414,-0.474,-3.369,0.803,-1.475,29.8,34.3,-6.5,43306,2016-08-02 15:30:12:210
0.389,-7.298,-0.462,-1.084,-0.728,-0.709,30.4,33.1,-4.5,43406,2016-08-02 15:30:12:310
0.389,-7.298,-0.462,-1.084,-0.728,-0.709,30.4,33.1,-4.5,43508,2016-08-02 15:30:12:412
-2.895,-13.067,-4.683,-1.084,-0.728,-0.709,28.5,35.2,-0.6,43607,2016-08-02 15:30:12:511
0.211,-9.595,2.506,-0.181,0.363,0.031,28.5,35.2,-0.6,43706,2016-08-02 15:30:12:610
0.211,-9.595,2.506,-0.181,0.363,0.031,24.9,38.8,1.0,43808,2016-08-02 15:30:12:712
-1.836,-7.191,-4.564,2.465,2.236,-0.216,24.9,38.8,1.0,43908,2016-08-02 15:30:12:812
-1.836,-7.191,-4.564,2.465,2.236,-0.216,25.4,38.5,-4.0,44006,2016-08-02 15:30:12:910
1.215,-10.075,-0.539,2.465,2.236,-0.216,25.4,38.5,-4.0,44108,2016-08-02 15:30:13:012
1.215,-10.075,-0.539,-0.351,0.619,0.585,28.3,34.6,-7.4,44207,2016-08-02 15:30:13:111
-2.343,-16.647,-1.285,-0.351,0.619,0.585,28.3,34.6,-7.4,44306,2016-08-02 15:30:13:210
-2.343,-16.647,-1.285,-1.179,0.352,-0.804,30.8,32.5,-7.6,44408,2016-08-02 15:30:13:312
-0.288,-8.087,-2.433,-1.179,0.352,-0.804,30.8,32.5,-7.6,44508,2016-08-02 15:30:13:412
-2.768,-8.128,-3.903,2.046,-1.361,0.694,29.2,33.6,-1.3,44607,2016-08-02 15:30:13:511
-2.768,-8.128,-3.903,2.046,-1.361,0.694,29.2,33.6,-1.3,44708,2016-08-02 15:30:13:612
0.015,0.017,5.139,2.046,-1.361,0.694,26.0,37.6,2.0,44807,2016-08-02 15:30:13:711
0.015,0.017,5.139,2.391,1.406,-0.385,26.0,37.6,2.0,44907,2016-08-02 15:30:13:811
-1.899,-6.315,-0.752,2.391,1.406,-0.385,26.0,37.5,0.7,45007,2016-08-02 15:30:13:911
-1.899,-6.315,-0.752,1.426,0.268,0.533,26.0,37.5,0.7,45107,2016-08-02 15:30:14:011
2.174,-10.1,0.064,1.426,0.268,0.533,26.0,37.5,0.7,45207,2016-08-02 15:30:14:111
2.174,-10.1,0.064,1.426,0.268,0.533,28.4,34.4,-4.6,45308,2016-08-02 15:30:14:212
-3.523,-14.903,-2.685,-2.894,0.493,-1.268,28.4,34.4,-4.6,45408,2016-08-02 15:30:14:312
0.73,-8.597,-0.28,-2.894,0.493,-1.268,31.2,31.1,-6.9,45507,2016-08-02 15:30:14:411
0.73,-8.597,-0.28,-0.767,-0.788,-0.564,31.2,31.1,-6.9,45606,2016-08-02 15:30:14:510
-1.219,-9.903,-3.388,-0.767,-0.788,-0.564,31.0,31.3,-3.4,45708,2016-08-02 15:30:14:612
-1.219,-9.903,-3.388,-0.767,-0.788,-0.564,31.0,31.3,-3.4,45807,2016-08-02 15:30:14:711
0.572,-18.707,1.61,-0.654,-0.941,-0.649,28.6,35.3,-0.7,45908,2016-08-02 15:30:14:812
0.572,-18.707,1.61,-0.654,-0.941,-0.649,28.6,35.3,-0.7,46008,2016-08-02 15:30:14:912
-4.143,-8.367,-3.881,2.381,-0.73,-0.517,26.5,38.0,-0.3,46107,2016-08-02 15:30:15:011
-4.143,-8.367,-3.881,2.381,-0.73,-0.517,26.5,38.0,-0.3,46208,2016-08-02 15:30:15:112
-2.675,-9.536,-2.373,0.411,1.195,0.913,27.5,36.8,-5.5,46306,2016-08-02 15:30:15:210
1.574,-12.104,0.586,0.411,1.195,0.913,27.5,36.8,-5.5,46407,2016-08-02 15:30:15:311
1.574,-12.104,0.586,0.411,1.195,0.913,30.1,33.5,-8.1,46510,2016-08-02 15:30:15:414
3.072,-9.204,0.008,-1.421,-1.588,-1.273,30.1,33.5,-8.1,46608,2016-08-02 15:30:15:512
3.072,-9.204,0.008,-1.421,-1.588,-1.273,30.8,32.2,-7.9,46708,2016-08-02 15:30:15:612
-0.248,-6.422,-0.749,1.027,-2.517,0.198,30.8,32.2,-7.9,46808,2016-08-02 15:30:15:712
-0.248,-6.422,-0.749,1.027,-2.517,0.198,28.3,34.9,-4.1,46908,2016-08-02 15:30:15:812
-1.983,-4.022,-1.592,0.688,-1.711,1.836,28.3,34.9,-4.1,47007,2016-08-02 15:30:15:911
-1.983,-4.022,-1.592,0.688,-1.711,1.836,23.9,38.9,-3.7,47108,2016-08-02 15:30:16:012
0.667,-13.604,2.687,0.688,-1.711,1.836,23.9,38.9,-3.7,47208,2016-08-02 15:30:16:112
-1.1,-9.767,-0.13,1.412,-0.286,0.011,23.8,39.0,-7.6,47308,2016-08-02 15:30:16:212
-1.1,-9.767,-0.13,1.412,-0.286,0.011,23.8,39.0,-7.6,47408,2016-08-02 15:30:16:312
0.317,-13.26,-0.936,-0.239,-0.409,0.09,25.0,36.4,-13.1,47506,2016-08-02 15:30:16:410
0.317,-13.26,-0.936,-0.239,-0.409,0.09,25.0,36.4,-13.1,47608,2016-08-02 15:30:16:512
-2.998,-11.487,0.876,-0.239,-0.409,0.09,27.7,32.0,-18.1,47708,2016-08-02 15:30:16:612
-2.998,-11.487,0.876,-1.194,0.382,-0.537,27.7,32.0,-18.1,47808,2016-08-02 15:30:16:712
-2.143,-5.501,-1.895,-1.194,0.382,-0.537,26.5,33.6,-17.0,47909,2016-08-02 15:30:16:813
-2.143,-5.501,-1.895,-1.582,-1.494,-0.911,26.5,33.6,-17.0,48007,2016-08-02 15:30:16:911
-0.521,-8.094,-5.118,-1.582,-1.494,-0.911,21.4,39.2,-11.3,48106,2016-08-02 15:30:17:010
-0.521,-8.094,-5.118,-1.582,-1.494,-0.911,21.4,39.2,-11.3,48209,2016-08-02 15:30:17:113
-11.08,-11.261,-9.082,0.966,-1.657,-0.052,12.8,45.0,-6.9,48308,2016-08-02 15:30:17:212
0.687,-10.277,0.569,0.966,-1.657,-0.052,12.8,45.0,-6.9,48408,2016-08-02 15:30:17:312
0.687,-10.277,0.569,1.414,-0.734,1.011,7.6,46.2,-9.4,48510,2016-08-02 15:30:17:414
-4.856,-10.567,-1.022,1.414,-0.734,1.011,7.6,46.2,-9.4,48606,2016-08-02 15:30:17:510
-4.856,-10.567,-1.022,0.864,0.574,0.551,7.1,42.9,-18.2,48708,2016-08-02 15:30:17:612
0.359,-12.467,0.245,0.864,0.574,0.551,7.1,42.9,-18.2,48809,2016-08-02 15:30:17:713
0.359,-12.467,0.245,0.864,0.574,0.551,10.6,36.5,-28.1,48908,2016-08-02 15:30:17:812
-2.839,-12.721,-1.039,-2.268,0.069,-0.633,10.6,36.5,-28.1,49008,2016-08-02 15:30:17:912
0.263,-6.918,-2.529,-2.268,0.069,-0.633,11.2,34.8,-30.4,49111,2016-08-02 15:30:18:015
0.263,-6.918,-2.529,-1.249,0.979,-0.947,11.2,34.8,-30.4,49209,2016-08-02 15:30:18:113
1.374,-7.581,-5.311,-1.249,0.979,-0.947,8.8,39.4,-23.9,49309,2016-08-02 15:30:18:213
1.374,-7.581,-5.311,-1.249,0.979,-0.947,8.8,39.4,-23.9,49410,2016-08-02 15:30:18:314
-6.613,-19.609,-4.683,0.223,-0.625,-0.543,3.5,45.4,-15.8,49506,2016-08-02 15:30:18:410
-6.613,-19.609,-4.683,0.223,-0.625,-0.543,3.5,45.4,-15.8,49607,2016-08-02 15:30:18:511
4.063,-10.766,-1.876,1.235,1.893,0.644,0.4,46.6,-13.1,49710,2016-08-02 15:30:18:614
4.063,-10.766,-1.876,1.235,1.893,0.644,0.4,46.6,-13.1,49808,2016-08-02 15:30:18:712
-3.417,-9.458,-1.851,0.593,0.261,0.591,0.4,46.6,-13.1,49908,2016-08-02 15:30:18:812
1.588,-12.049,-0.122,0.593,0.261,0.591,2.2,44.3,-18.2,50006,2016-08-02 15:30:18:910
1.588,-12.049,-0.122,0.593,0.261,0.591,2.2,44.3,-18.2,50108,2016-08-02 15:30:19:012
-4.686,-12.541,1.087,-1.496,-0.507,-0.496,6.4,40.0,-25.9,50208,2016-08-02 15:30:19:112
-4.686,-12.541,1.087,-1.496,-0.507,-0.496,6.4,40.0,-25.9,50309,2016-08-02 15:30:19:213
1.186,-5.076,-0.85,-0.798,2.076,-0.975,7.3,39.0,-27.8,50408,2016-08-02 15:30:19:312
1.186,-5.076,-0.85,-0.798,2.076,-0.975,7.3,39.0,-27.8,50508,2016-08-02 15:30:19:412
6.975,-19.609,-9.234,-0.869,-0.454,-0.989,6.1,41.8,-22.8,50611,2016-08-02 15:30:19:515
6.975,-19.609,-9.234,-0.869,-0.454,-0.989,6.1,41.8,-22.8,50708,2016-08-02 15:30:19:612
-5.54,-5.565,1.045,-0.869,-0.454,-0.989,3.7,45.9,-16.5,50808,2016-08-02 15:30:19:712
-2.26,-8.195,-1.47,1.921,-0.453,0.647,3.7,45.9,-16.5,50907,2016-08-02 15:30:19:811
-2.26,-8.195,-1.47,1.921,-0.453,0.647,3.4,45.7,-16.5,51007,2016-08-02 15:30:19:911
2.047,-9.277,0.765,0.903,0.321,0.778,3.4,45.7,-16.5,51108,2016-08-02 15:30:20:012
2.047,-9.277,0.765,0.903,0.321,0.778,5.9,42.4,-22.2,51212,2016-08-02 15:30:20:116
1.763,-11.566,-1.541,0.903,0.321,0.778,5.9,42.4,-22.2,51309,2016-08-02 15:30:20:213
1.763,-11.566,-1.541,-3.049,0.88,-1.292,10.9,37.4,-28.5,51408,2016-08-02 15:30:20:312
1.537,-8.345,0.794,-3.049,0.88,-1.292,10.9,37.4,-28.5,51508,2016-08-02 15:30:20:412
1.537,-8.345,0.794,-0.758,-0.532,-0.874,11.8,38.0,-27.3,51608,2016-08-02 15:30:20:512
-2.845,-3.995,0.328,-0.758,-0.532,-0.874,11.8,38.0,-27.3,51708,2016-08-02 15:30:20:612
-3.051,-11.981,-0.854,-0.533,0.049,-0.401,7.9,42.1,-21.4,51808,2016-08-02 15:30:20:712
-3.051,-11.981,-0.854,-0.533,0.049,-0.401,7.9,42.1,-21.4,51908,2016-08-02 15:30:20:812
2.608,-18.164,2.886,-0.533,0.049,-0.401,2.8,45.5,-16.3,52008,2016-08-02 15:30:20:912
2.608,-18.164,2.886,2.385,-0.748,-0.294,2.8,45.5,-16.3,52108,2016-08-02 15:30:21:012
0.434,-9.431,-0.426,2.385,-0.748,-0.294,1.6,44.9,-17.8,52208,2016-08-02 15:30:21:112
0.434,-9.431,-0.426,0.559,0.337,0.332,1.6,44.9,-17.8,52308,2016-08-02 15:30:21:212
3.463,-12.802,1.385,0.559,0.337,0.332,4.2,40.8,-24.1,52408,2016-08-02 15:30:21:312
3.463,-12.802,1.385,0.559,0.337,0.332,4.2,40.8,-24.1,52507,2016-08-02 15:30:21:411
-4.206,-12.352,-3.965,-1.554,-0.64,-0.896,6.4,37.9,-29.0,52609,2016-08-02 15:30:21:513
-2.43,-3.724,0.902,-1.554,-0.64,-0.896,6.4,37.9,-29.0,52709,2016-08-02 15:30:21:613
-2.43,-3.724,0.902,1.146,-1.981,0.059,4.3,39.5,-25.6,52806,2016-08-02 15:30:21:710
0.442,-9.352,-3.272,1.146,-1.981,0.059,4.3,39.5,-25.6,52908,2016-08-02 15:30:21:812
0.442,-9.352,-3.272,0.162,0.186,-0.127,-1.3,43.6,-19.4,53009,2016-08-02 15:30:21:913
2.746,-12.68,3.356,0.162,0.186,-0.127,-1.3,43.6,-19.4,53108,2016-08-02 15:30:22:012
2.746,-12.68,3.356,0.162,0.186,-0.127,-4.5,44.8,-16.6,53208,2016-08-02 15:30:22:112
-0.108,-9.761,-0.515,1.174,1.294,0.458,-4.5,44.8,-16.6,53308,2016-08-02 15:30:22:212
-0.108,-9.761,-0.515,1.174,1.294,0.458,-2.2,42.2,-22.3,53408,2016-08-02 15:30:22:312
1.537,-12.853,-1.038,-1.776,-0.127,-0.786,-2.2,42.2,-22.3,53508,2016-08-02 15:30:22:412
1.537,-12.853,-1.038,-1.776,-0.127,-0.786,2.8,38.5,-28.6,53608,2016-08-02 15:30:22:512
-4.744,-13.091,-4.622,-1.776,-0.127,-0.786,2.8,38.5,-28.6,53708,2016-08-02 15:30:22:612
-2.914,-3.112,0.955,-1.192,0.547,-1.179,4.3,39.1,-27.8,53808,2016-08-02 15:30:22:712
-2.914,-3.112,0.955,-1.192,0.547,-1.179,4.3,39.1,-27.8,53908,2016-08-02 15:30:22:812
-0.147,-5.827,-3.804,-1.169,-2.39,-1.262,0.7,43.5,-20.5,54008,2016-08-02 15:30:22:912
-0.147,-5.827,-3.804,-1.169,-2.39,-1.262,0.7,43.5,-20.5,54108,2016-08-02 15:30:23:012
-0.83,-6.541,4.656,-1.169,-2.39,-1.262,-3.0,46.6,-15.7,54208,2016-08-02 15:30:23:112
-0.83,-6.541,4.656,0.851,-3.221,1.458,-3.0,46.6,-15.7,54308,2016-08-02 15:30:23:212
-1.493,-8.425,-0.67,0.851,-3.221,1.458,-1.7,44.1,-20.3,54407,2016-08-02 15:30:23:311
-1.493,-8.425,-0.67,0.756,0.476,0.733,-1.7,44.1,-20.3,54507,2016-08-02 15:30:23:411
3.047,-13.55,0.816,0.756,0.476,0.733,-1.7,44.1,-20.3,54607,2016-08-02 15:30:23:511
-4.683,-13.817,1.05,-2.387,-0.59,-0.967,3.2,39.1,-27.3,54708,2016-08-02 15:30:23:612
-4.683,-13.817,1.05,-2.387,-0.59,-0.967,6.4,36.7,-30.1,54808,2016-08-02 15:30:23:712
-2.233,-3.306,0.556,-2.387,-0.59,-0.967,6.4,36.7,-30.1,54911,2016-08-02 15:30:23:815
-2.233,-3.306,0.556,0.634,-1.907,0.289,6.4,36.7,-30.1,55006,2016-08-02 15:30:23:910
1.848,-11.249,-7.843,0.634,-1.907,0.289,2.9,39.8,-23.8,55108,2016-08-02 15:30:24:012
1.848,-11.249,-7.843,-0.195,0.209,0.071,2.9,39.8,-23.8,55208,2016-08-02 15:30:24:112
-1.865,-8.219,4.299,-0.195,0.209,0.071,-2.3,44.7,-17.2,55308,2016-08-02 15:30:24:212
-1.865,-8.219,4.299,-0.195,0.209,0.071,-2.3,44.7,-17.2,55408,2016-08-02 15:30:24:312
-4.557,-9.176,-0.524,1.381,0.875,0.052,-3.0,44.3,-17.8,55508,2016-08-02 15:30:24:412
2.124,-11.847,-1.872,1.381,0.875,0.052,-3.0,44.3,-17.8,55608,2016-08-02 15:30:24:512
2.124,-11.847,-1.872,-0.599,0.679,-0.164,0.8,40.5,-24.4,55708,2016-08-02 15:30:24:612
-3.724,-14.114,4.293,-0.599,0.679,-0.164,0.8,40.5,-24.4,55808,2016-08-02 15:30:24:712
-3.724,-14.114,4.293,-1.542,-0.001,-1.094,5.3,36.7,-29.8,55908,2016-08-02 15:30:24:812
-2.478,-3.775,1.076,-1.542,-0.001,-1.094,5.3,36.7,-29.8,56007,2016-08-02 15:30:24:911
-2.478,-3.775,1.076,-1.542,-0.001,-1.094,4.2,39.1,-25.3,56108,2016-08-02 15:30:25:012
2.953,-11.214,-9.203,-1.486,-0.564,-1.227,4.2,39.1,-25.3,56208,2016-08-02 15:30:25:112
2.953,-11.214,-9.203,-1.486,-0.564,-1.227,-0.7,43.7,-18.6,56307,2016-08-02 15:30:25:211
0.596,-6.185,7.129,0.519,-3.209,0.744,-0.7,43.7,-18.6,56408,2016-08-02 15:30:25:312
-0.78,-8.568,1.689,0.519,-3.209,0.744,-4.3,44.9,-16.3,56508,2016-08-02 15:30:25:412
-0.78,-8.568,1.689,0.519,-3.209,0.744,-4.3,44.9,-16.3,56608,2016-08-02 15:30:25:512
-0.063,-12.091,-2.046,0.585,1.172,0.85,-0.8,40.9,-23.6,56708,2016-08-02 15:30:25:612
-0.063,-12.091,-2.046,0.585,1.172,0.85,-0.8,40.9,-23.6,56808,2016-08-02 15:30:25:712
-1.925,-14.361,6.554,-2.991,-0.043,-0.783,5.5,36.6,-29.9,56908,2016-08-02 15:30:25:812
-1.925,-14.361,6.554,-2.991,-0.043,-0.783,5.5,36.6,-29.9,57008,2016-08-02 15:30:25:912
-2.456,-3.113,1.409,0.522,-2.932,0.072,5.9,37.9,-27.2,57108,2016-08-02 15:30:26:012
-2.456,-3.113,1.409,0.522,-2.932,0.072,5.9,37.9,-27.2,57208,2016-08-02 15:30:26:112
4.807,-12.058,-8.919,0.522,-2.932,0.072,1.3,42.0,-20.0,57308,2016-08-02 15:30:26:212
-0.874,-4.328,4.256,0.302,-0.51,2.011,1.3,42.0,-20.0,57408,2016-08-02 15:30:26:312
-0.874,-4.328,4.256,0.302,-0.51,2.011,-3.7,45.1,-15.2,57508,2016-08-02 15:30:26:412
-3.069,-9.266,1.816,0.802,1.355,0.404,-3.7,45.1,-15.2,57609,2016-08-02 15:30:26:513
-3.069,-9.266,1.816,0.802,1.355,0.404,-2.2,43.2,-19.5,57709,2016-08-02 15:30:26:613
1.742,-12.343,-1.683,0.802,1.355,0.404,-2.2,43.2,-19.5,57807,2016-08-02 15:30:26:711
1.742,-12.343,-1.683,-0.582,0.337,-0.285,2.7,39.1,-26.3,57908,2016-08-02 15:30:26:812
-4.134,-12.832,4.37,-0.582,0.337,-0.285,2.7,39.1,-26.3,58007,2016-08-02 15:30:26:911
-4.134,-12.832,4.37,-0.944,1.7,-1.443,5.1,38.2,-28.1,58108,2016-08-02 15:30:27:012
-1.168,-3.382,1.789,-0.944,1.7,-1.443,5.1,38.2,-28.1,58207,2016-08-02 15:30:27:111
5.342,-16.674,-11.726,-1.215,-0.691,-0.8,1.3,41.4,-21.3,58308,2016-08-02 15:30:27:212
5.342,-16.674,-11.726,-1.215,-0.691,-0.8,1.3,41.4,-21.3,58408,2016-08-02 15:30:27:312
-2.831,-5.313,4.228,-1.215,-0.691,-0.8,-4.7,45.5,-15.1,58508,2016-08-02 15:30:27:412
-2.831,-5.313,4.228,0.561,-1.894,1.267,-4.7,45.5,-15.1,58606,2016-08-02 15:30:27:510
-2.293,-9.123,2.057,0.561,-1.894,1.267,-5.8,44.2,-16.7,58707,2016-08-02 15:30:27:611
-2.293,-9.123,2.057,0.706,0.892,0.791,-5.8,44.2,-16.7,58808,2016-08-02 15:30:27:712
2.094,-13.01,-0.594,0.706,0.892,0.791,-1.7,40.3,-23.8,58908,2016-08-02 15:30:27:812
2.094,-13.01,-0.594,0.706,0.892,0.791,-1.7,40.3,-23.8,59009,2016-08-02 15:30:27:913
-5.694,-13.433,4.225,-2.504,-0.072,-0.551,1.8,38.6,-27.6,59109,2016-08-02 15:30:28:013
-1.621,-3.334,0.709,-2.504,-0.072,-0.551,1.8,38.6,-27.6,59209,2016-08-02 15:30:28:113
-1.621,-3.334,0.709,0.56,-2.286,0.126,0.2,40.4,-22.8,59308,2016-08-02 15:30:28:212
2.904,-13.474,-9.176,0.56,-2.286,0.126,0.2,40.4,-22.8,59407,2016-08-02 15:30:28:311
2.904,-13.474,-9.176,-0.393,0.144,0.633,-3.5,44.5,-15.5,59507,2016-08-02 15:30:28:411
-2.377,-7.0,4.4,-0.393,0.144,0.633,-3.5,44.5,-15.5,59609,2016-08-02 15:30:28:513
-2.377,-7.0,4.4,-0.393,0.144,0.633,-3.7,44.4,-15.5,59707,2016-08-02 15:30:28:611
-1.607,-10.588,-0.039,0.961,2.102,0.284,-3.7,44.4,-15.5,59808,2016-08-02 15:30:28:712
-1.607,-10.588,-0.039,0.961,2.102,0.284,0.8,40.4,-23.4,59909,2016-08-02 15:30:28:813
3.159,-12.665,0.038,-1.308,-0.557,-0.797,0.8,40.4,-23.4,60006,2016-08-02 15:30:28:910
-5.467,-12.834,-5.602,-1.308,-0.557,-0.797,0.8,40.4,-28.6,60108,2016-08-02 15:30:29:012
-5.467,-12.834,-5.602,-1.308,-0.557,-0.797,5.4,37.3,-28.6,60208,2016-08-02 15:30:29:112
-2.206,-2.66,1.499,-1.336,0.864,-1.392,5.4,37.3,-28.6,60308,2016-08-02 15:30:29:212
-2.206,-2.66,1.499,-1.336,0.864,-1.392,5.5,39.3,-25.1,60406,2016-08-02 15:30:29:310
2.031,-5.475,-4.09,-0.955,-1.646,-0.944,5.5,39.3,-25.1,60508,2016-08-02 15:30:29:412
2.031,-5.475,-4.09,-0.955,-1.646,-0.944,1.1,43.9,-17.5,60608,2016-08-02 15:30:29:512
-2.18,-6.455,5.067,1.01,-2.323,1.574,1.1,43.9,-17.5,60707,2016-08-02 15:30:29:611
-2.18,-6.455,5.067,1.01,-2.323,1.574,-2.0,45.5,-14.5,60808,2016-08-02 15:30:29:712
-1.18,-9.555,-1.08,1.01,-2.323,1.574,-2.0,45.5,-14.5,60906,2016-08-02 15:30:29:810
1.405,-12.922,0.593,0.579,0.633,0.615,0.2,42.6,-20.3,61008,2016-08-02 15:30:29:912
1.405,-12.922,0.593,0.579,0.633,0.615,0.2,42.6,-20.3,61108,2016-08-02 15:30:30:012
-4.098,-10.402,1.928,-1.993,-0.176,-0.391,5.0,38.4,-26.6,61208,2016-08-02 15:30:30:112
-4.098,-10.402,1.928,-1.993,-0.176,-0.391,5.0,38.4,-26.6,61308,2016-08-02 15:30:30:212
-1.741,-2.935,0.598,-1.993,-0.176,-0.391,7.4,38.1,-26.4,61407,2016-08-02 15:30:30:311
-1.741,-2.935,0.598,0.905,-2.122,0.068,7.4,38.1,-26.4,61508,2016-08-02 15:30:30:412
4.245,-14.316,-8.279,0.905,-2.122,0.068,4.6,41.4,-20.6,61606,2016-08-02 15:30:30:510
4.245,-14.316,-8.279,-0.331,-0.801,0.7,4.6,41.4,-20.6,61708,2016-08-02 15:30:30:612
-4.01,-6.282,4.205,-0.331,-0.801,0.7,0.5,44.3,-15.9,61808,2016-08-02 15:30:30:712
-3.801,-9.389,0.616,1.0,1.374,0.106,0.5,44.3,-15.9,61907,2016-08-02 15:30:30:811
-3.801,-9.389,0.616,1.0,1.374,0.106,-0.2,43.1,-18.5,62008,2016-08-02 15:30:30:912
-0.161,-12.656,-1.28,1.0,1.374,0.106,-0.2,43.1,-18.5,62109,2016-08-02 15:30:31:013
-0.161,-12.656,-1.28,-0.527,0.909,0.009,4.1,39.5,-24.5,62207,2016-08-02 15:30:31:111
-5.883,-14.562,4.253,-0.527,0.909,0.009,4.1,39.5,-24.5,62308,2016-08-02 15:30:31:212
-5.883,-14.562,4.253,-1.693,2.87,-1.139,7.9,37.1,-27.9,62407,2016-08-02 15:30:31:311
-0.17,-5.157,0.064,-1.693,2.87,-1.139,7.9,37.1,-27.9,62507,2016-08-02 15:30:31:411
-0.17,-5.157,0.064,-1.693,2.87,-1.139,7.2,39.3,-23.3,62608,2016-08-02 15:30:31:512
5.191,-19.609,-11.736,0.892,-0.338,1.287,7.2,39.3,-23.3,62708,2016-08-02 15:30:31:612
-2.134,-3.66,-0.629,0.892,-0.338,1.287,2.4,43.5,-17.4,62807,2016-08-02 15:30:31:711
-2.134,-3.66,-0.629,1.415,3.458,0.856,2.4,43.5,-17.4,62906,2016-08-02 15:30:31:810
-0.613,-7.048,-0.648,1.415,3.458,0.856,-0.7,44.8,-15.4,63008,2016-08-02 15:30:31:912
-0.613,-7.048,-0.648,0.783,-0.029,0.583,-0.7,44.8,-15.4,63107,2016-08-02 15:30:32:011
0.483,-9.572,0.26,0.783,-0.029,0.583,2.0,41.9,-20.8,63208,2016-08-02 15:30:32:112
0.483,-9.572,0.26,0.783,-0.029,0.583,2.0,41.9,-20.8,63306,2016-08-02 15:30:32:210
1.013,-13.278,-2.314,-0.853,-0.532,-0.442,7.1,36.8,-27.2,63407,2016-08-02 15:30:32:311
1.013,-13.278,-2.314,-0.853,-0.532,-0.442,7.1,36.8,-27.2,63508,2016-08-02 15:30:32:412
-0.458,-10.86,-0.149,-1.095,0.925,-1.057,9.2,35.2,-29.0,63608,2016-08-02 15:30:32:512
-2.215,-4.81,0.04,-1.095,0.925,-1.057,9.2,35.2,-29.0,63706,2016-08-02 15:30:32:610
-2.215,-4.81,0.04,-1.095,0.925,-1.057,6.0,39.0,-23.0,63808,2016-08-02 15:30:32:712
-0.675,-6.996,-0.761,-0.278,-0.309,-0.423,6.0,39.0,-23.0,63908,2016-08-02 15:30:32:812
-0.675,-6.996,-0.761,-0.278,-0.309,-0.423,0.7,43.6,-17.2,64007,2016-08-02 15:30:32:911
-0.101,-11.5,4.921,0.94,-0.148,1.693,0.7,43.6,-17.2,64108,2016-08-02 15:30:33:012
-0.101,-11.5,4.921,0.94,-0.148,1.693,-0.4,43.3,-17.3,64208,2016-08-02 15:30:33:112
-1.002,-9.445,-0.858,0.739,0.674,0.862,-0.4,43.3,-17.3,64306,2016-08-02 15:30:33:210
-1.002,-9.445,-0.858,0.739,0.674,0.862,2.0,39.7,-23.0,64408,2016-08-02 15:30:33:312
1.666,-12.005,1.499,0.739,0.674,0.862,2.0,39.7,-23.0,64508,2016-08-02 15:30:33:412
-6.154,-12.319,-3.351,-3.013,0.679,-1.384,6.2,35.5,-28.9,64606,2016-08-02 15:30:33:510
-6.154,-12.319,-3.351,-3.013,0.679,-1.384,6.2,35.5,-28.9,64708,2016-08-02 15:30:33:612
-2.188,-3.285,1.313,-0.784,-0.05,-0.631,6.5,37.4,-26.4,64807,2016-08-02 15:30:33:711
-2.188,-3.285,1.313,-0.784,-0.05,-0.631,6.5,37.4,-26.4,64906,2016-08-02 15:30:33:810
3.356,-12.965,-9.091,-0.784,-0.05,-0.631,6.5,37.4,-26.4,65007,2016-08-02 15:30:33:911
3.356,-12.965,-9.091,-0.481,0.9,-0.046,4.0,41.3,-19.8,65108,2016-08-02 15:30:34:012
-3.345,-6.977,3.58,-0.481,0.9,-0.046,4.0,41.3,-19.8,65206,2016-08-02 15:30:34:110
-3.345,-6.977,3.58,2.292,0.986,0.197,1.7,44.1,-15.8,65307,2016-08-02 15:30:34:211
-1.964,-9.895,0.894,2.292,0.986,0.197,1.7,44.1,-15.8,65408,2016-08-02 15:30:34:312
-1.964,-9.895,0.894,2.292,0.986,0.197,3.5,41.6,-20.2,65506,2016-08-02 15:30:34:410
-0.62,-11.976,-1.433,0.476,-0.003,0.118,3.5,41.6,-20.2,65608,2016-08-02 15:30:34:512
-6.154,-14.155,2.373,0.476,-0.003,0.118,8.0,37.2,-25.4,65708,2016-08-02 15:30:34:612
-6.154,-14.155,2.373,-2.184,-0.784,-0.606,8.0,37.2,-25.4,65807,2016-08-02 15:30:34:711
0.144,-6.121,-0.682,-2.184,-0.784,-0.606,9.8,36.4,-27.1,65908,2016-08-02 15:30:34:812
0.144,-6.121,-0.682,1.146,-1.653,0.414,9.8,36.4,-27.1,66008,2016-08-02 15:30:34:912
2.898,-19.609,-11.399,1.146,-1.653,0.414,7.3,39.9,-20.9,66107,2016-08-02 15:30:35:011
2.898,-19.609,-11.399,1.146,-1.653,0.414,7.3,39.9,-20.9,66208,2016-08-02 15:30:35:112
-2.452,-7.561,-4.973,-0.37,-0.443,-0.144,2.8,44.3,-14.9,66309,2016-08-02 15:30:35:213
-1.558,-6.931,-2.156,-0.37,-0.443,-0.144,2.8,44.3,-14.9,66407,2016-08-02 15:30:35:311
-1.558,-6.931,-2.156,1.067,1.178,0.504,1.5,44.2,-15.4,66508,2016-08-02 15:30:35:412
2.195,-10.321,0.908,1.067,1.178,0.504,1.5,44.2,-15.4,66609,2016-08-02 15:30:35:513
2.195,-10.321,0.908,0.064,0.775,-0.153,4.1,40.5,-21.7,66708,2016-08-02 15:30:35:612
0.818,-11.73,-2.372,0.064,0.775,-0.153,4.1,40.5,-21.7,66808,2016-08-02 15:30:35:712
0.818,-11.73,-2.372,0.064,0.775,-0.153,8.3,36.1,-26.6,66906,2016-08-02 15:30:35:810
3.904,-8.839,0.812,-2.009,2.997,-0.884,8.3,36.1,-26.6,67008,2016-08-02 15:30:35:912
3.904,-8.839,0.812,-2.009,2.997,-0.884,9.1,36.7,-24.1,67108,2016-08-02 15:30:36:012
-3.433,-4.587,-1.629,1.41,-0.281,1.286,9.1,36.7,-24.1,67207,2016-08-02 15:30:36:111
-3.433,-4.587,-0.002,1.41,-0.281,1.286,4.9,41.3,-17.3,67307,2016-08-02 15:30:36:211
-6.22,-11.848,-0.002,1.41,-0.281,1.286,4.9,41.3,-17.3,67408,2016-08-02 15:30:36:312
-0.253,-16.741,3.849,1.667,1.637,0.39,0.1,43.9,-12.7,67508,2016-08-02 15:30:36:412
-0.253,-16.741,3.849,1.667,1.637,0.39,0.1,43.9,-12.7,67608,2016-08-02 15:30:36:512
-0.109,-10.277,-1.824,0.817,0.015,0.558,-0.7,43.1,-16.0,67708,2016-08-02 15:30:36:612
-0.109,-10.277,-1.824,0.817,0.015,0.558,-0.7,43.1,-16.0,67807,2016-08-02 15:30:36:711
-1.04,-11.626,1.753,-0.591,-0.262,-0.065,3.4,38.8,-22.5,67909,2016-08-02 15:30:36:813
-1.04,-11.626,1.753,-0.591,-0.262,-0.065,3.4,38.8,-22.5,68008,2016-08-02 15:30:36:912
-5.971,-13.809,5.036,-0.591,-0.262,-0.065,7.9,35.0,-27.5,68108,2016-08-02 15:30:37:012
-5.971,-13.809,5.036,-1.299,2.001,-1.44,7.9,35.0,-27.5,68208,2016-08-02 15:30:37:112
-2.039,-4.481,1.024,-1.299,2.001,-1.44,6.8,36.0,-23.8,68308,2016-08-02 15:30:37:212
8.598,-17.502,-9.301,-0.257,-0.218,0.014,6.8,36.0,-23.8,68407,2016-08-02 15:30:37:311
8.598,-17.502,-9.301,-0.257,-0.218,0.014,1.3,39.8,-17.9,68509,2016-08-02 15:30:37:413
-4.597,-2.943,4.785,-0.257,-0.218,0.014,1.3,39.8,-17.9,68607,2016-08-02 15:30:37:511
-4.597,-2.943,4.785,1.049,-0.498,1.703,-4.0,41.0,-14.5,68708,2016-08-02 15:30:37:612
-3.216,-8.641,2.252,1.049,-0.498,1.703,-4.0,41.0,-14.5,68807,2016-08-02 15:30:37:711
-3.216,-8.641,2.252,0.835,0.702,0.928,-3.8,38.5,-18.9,68908,2016-08-02 15:30:37:812
1.968,-11.91,0.174,0.835,0.702,0.928,-3.8,38.5,-18.9,69009,2016-08-02 15:30:37:913
1.702,-10.574,-2.984,-2.677,0.268,-0.686,0.1,33.8,-25.6,69110,2016-08-02 15:30:38:014
1.702,-10.574,-2.984,-2.677,0.268,-0.686,0.1,33.8,-25.6,69208,2016-08-02 15:30:38:112
1.359,-7.424,-0.431,-2.677,0.268,-0.686,3.2,31.1,-31.0,69308,2016-08-02 15:30:38:212
1.359,-7.424,-0.431,-1.037,0.499,-0.972,3.2,31.1,-31.0,69409,2016-08-02 15:30:38:313
-0.554,-9.661,-5.26,-1.037,0.499,-0.972,0.1,34.4,-27.1,69508,2016-08-02 15:30:38:412
-0.554,-9.661,-5.26,-0.834,0.505,-0.718,0.1,34.4,-27.1,69608,2016-08-02 15:30:38:512
-1.326,-19.318,1.604,-0.834,0.505,-0.718,-4.8,39.1,-22.1,69710,2016-08-02 15:30:38:614
-1.326,-19.318,1.604,-0.834,0.505,-0.718,-4.8,39.1,-22.1,69807,2016-08-02 15:30:38:711
-0.792,-7.286,-4.3,2.565,-1.065,-0.308,-5.8,40.1,-21.2,69908,2016-08-02 15:30:38:812
-0.033,-9.674,-0.866,2.565,-1.065,-0.308,-5.8,40.1,-21.2,70011,2016-08-02 15:30:38:915
-0.033,-9.674,-0.866,0.507,0.275,0.463,-2.3,36.3,-25.4,70108,2016-08-02 15:30:39:012
1.912,-12.26,-2.647,0.507,0.275,0.463,-2.3,36.3,-25.4,70208,2016-08-02 15:30:39:112
1.912,-12.26,-2.647,0.507,0.275,0.463,2.1,31.7,-30.8,70310,2016-08-02 15:30:39:214
2.778,-8.919,-0.84,-1.692,-0.71,-0.545,2.1,31.7,-30.8,70408,2016-08-02 15:30:39:312
2.778,-8.919,-0.84,-1.692,-0.71,-0.545,2.6,31.7,-29.2,70506,2016-08-02 15:30:39:410
-4.101,-3.891,0.344,0.726,-2.341,0.016,2.6,31.7,-29.2,70612,2016-08-02 15:30:39:516
-4.101,-3.891,0.344,0.726,-2.341,0.016,-1.0,34.5,-24.7,70708,2016-08-02 15:30:39:612
0.841,-6.078,0.107,0.686,-1.483,1.236,-1.0,34.5,-24.7,70807,2016-08-02 15:30:39:711
-2.849,-7.386,3.759,0.686,-1.483,1.236,-5.3,35.8,-21.2,70913,2016-08-02 15:30:39:817
-2.849,-7.386,3.759,0.686,-1.483,1.236,-5.3,35.8,-21.2,71009,2016-08-02 15:30:39:913
-0.819,-9.762,-1.829,1.577,2.788,-0.316,-5.3,35.8,-21.2,71109,2016-08-02 15:30:40:013
-0.819,-9.762,-1.829,1.577,2.788,-0.316,-5.6,32.9,-23.5,71211,2016-08-02 15:30:40:115
1.095,-9.51,0.449,-0.236,1.389,0.347,-5.6,32.9,-23.5,71308,2016-08-02 15:30:40:212
1.095,-9.51,0.449,-0.236,1.389,0.347,-1.4,29.0,-26.3,71408,2016-08-02 15:30:40:312
-11.864,-18.983,-4.684,-0.236,1.389,0.347,-1.4,29.0,-26.3,71511,2016-08-02 15:30:40:415
-11.864,-18.983,-4.684,-1.412,1.429,0.499,2.8,26.6,-28.0,71608,2016-08-02 15:30:40:512
-2.771,-2.139,-1.196,-1.412,1.429,0.499,2.8,26.6,-28.0,71708,2016-08-02 15:30:40:612
1.917,-12.957,-9.673,0.73,-1.121,0.717,3.3,28.1,-24.7,71807,2016-08-02 15:30:40:711
1.917,-12.957,-9.673,0.73,-1.121,0.717,3.3,28.1,-24.7,71908,2016-08-02 15:30:40:812
-6.433,-7.46,4.708,1.497,2.347,0.672,-0.1,31.1,-21.0,72006,2016-08-02 15:30:40:910
-6.433,-7.46,4.708,1.497,2.347,0.672,-0.1,31.1,-21.0,72111,2016-08-02 15:30:41:015
-1.724,-9.533,-1.115,1.497,2.347,0.672,-1.3,32.5,-20.3,72207,2016-08-02 15:30:41:111
-1.724,-9.533,-1.115,0.795,0.493,0.539,-1.3,32.5,-20.3,72308,2016-08-02 15:30:41:212
-0.614,-11.123,-1.467,0.795,0.493,0.539,0.2,31.4,-22.6,72408,2016-08-02 15:30:41:312
-0.614,-11.123,-1.467,-0.82,-0.166,0.237,0.2,31.4,-22.6,72507,2016-08-02 15:30:41:411
2.418,-13.762,-1.92,-0.82,-0.166,0.237,4.3,28.3,-26.2,72609,2016-08-02 15:30:41:513
0.818,-8.709,-1.347,-0.958,0.068,-1.635,4.3,28.3,-26.2,72708,2016-08-02 15:30:41:612
0.818,-8.709,-1.347,-0.958,0.068,-1.635,4.2,29.2,-25.5,72806,2016-08-02 15:30:41:710
-1.672,-8.302,-3.922,-0.958,0.068,-1.635,4.2,29.2,-25.5,72908,2016-08-02 15:30:41:812
-1.672,-8.302,-3.922,0.141,-0.421,0.378,-0.9,33.9,-19.9,73008,2016-08-02 15:30:41:912
-3.104,-16.994,1.615,0.141,-0.421,0.378,-0.9,33.9,-19.9,73108,2016-08-02 15:30:42:012
-3.104,-16.994,1.615,1.027,1.466,0.933,-7.3,38.8,-14.9,73208,2016-08-02 15:30:42:112
7.337,-18.471,0.332,1.027,1.466,0.933,-7.3,38.8,-14.9,73308,2016-08-02 15:30:42:212
7.337,-18.471,0.332,1.027,1.466,0.933,-9.4,40.1,-14.9,73408,2016-08-02 15:30:42:312
2.346,-10.21,1.844,0.432,0.495,1.099,-9.4,40.1,-14.9,73508,2016-08-02 15:30:42:412
2.346,-10.21,1.844,0.432,0.495,1.099,-7.1,39.1,-19.8,73608,2016-08-02 15:30:42:512
1.27,-10.974,-3.251,-1.729,0.433,-0.771,-7.1,39.1,-19.8,73708,2016-08-02 15:30:42:612
-5.524,-11.119,-2.379,-1.729,0.433,-0.771,-3.3,37.6,-24.4,73808,2016-08-02 15:30:42:712
-5.524,-11.119,-2.379,-1.729,0.433,-0.771,-3.3,37.6,-24.4,73908,2016-08-02 15:30:42:812
-1.821,-4.426,0.038,-0.813,0.3,-1.032,-2.8,38.2,-23.3,74008,2016-08-02 15:30:42:912
-1.821,-4.426,0.038,-0.813,0.3,-1.032,-2.8,38.2,-23.3,74107,2016-08-02 15:30:43:011
4.254,-14.572,-7.619,-0.167,-1.648,0.217,-7.0,40.3,-17.1,74206,2016-08-02 15:30:43:110
4.254,-14.572,-7.619,-0.167,-1.648,0.217,-7.0,40.3,-17.1,74307,2016-08-02 15:30:43:211
-3.012,-7.563,5.505,0.272,-2.034,2.258,-10.1,41.7,-13.6,74408,2016-08-02 15:30:43:312
-3.012,-7.563,5.505,0.272,-2.034,2.258,-10.1,41.7,-13.6,74508,2016-08-02 15:30:43:412
-2.449,-10.177,-1.132,0.272,-2.034,2.258,-8.9,40.8,-16.6,74608,2016-08-02 15:30:43:512
-1.053,-13.117,-0.187,0.954,0.654,0.885,-8.9,40.8,-16.6,74708,2016-08-02 15:30:43:612
-1.053,-13.117,-0.187,0.954,0.654,0.885,-3.6,38.5,-23.3,74806,2016-08-02 15:30:43:710
-5.362,-13.572,4.851,-2.743,-0.144,-0.901,-3.6,38.5,-23.3,74908,2016-08-02 15:30:43:812
-5.362,-13.572,4.851,-2.743,-0.144,-0.901,0.1,37.4,-26.8,75008,2016-08-02 15:30:43:912
-1.061,-4.58,0.478,-2.743,-0.144,-0.901,0.1,37.4,-26.8,75108,2016-08-02 15:30:44:012
-1.061,-4.58,0.478,0.072,-2.123,-0.078,-3.0,39.0,-21.4,75208,2016-08-02 15:30:44:112
5.871,-18.019,-12.186,0.072,-2.123,-0.078,-3.0,39.0,-21.4,75308,2016-08-02 15:30:44:212
5.871,-18.019,-12.186,-0.969,-0.636,0.883,-7.7,42.3,-14.5,75408,2016-08-02 15:30:44:312
-3.311,-6.765,5.012,-0.969,-0.636,0.883,-7.7,42.3,-14.5,75508,2016-08-02 15:30:44:412
-1.833,-9.614,-0.013,0.832,1.528,0.081,-9.0,42.6,-14.0,75608,2016-08-02 15:30:44:512
-1.833,-9.614,-0.013,0.832,1.528,0.081,-9.0,42.6,-14.0,75708,2016-08-02 15:30:44:612
-1.094,-12.129,-1.684,0.832,1.528,0.081,-4.6,40.4,-20.9,75807,2016-08-02 15:30:44:711
-1.094,-12.129,-1.684,-0.261,0.306,0.131,-4.6,40.4,-20.9,75908,2016-08-02 15:30:44:812
-1.868,-15.407,3.22,-0.261,0.306,0.131,0.9,37.0,-27.8,76006,2016-08-02 15:30:44:910
-1.868,-15.407,3.22,-0.676,2.151,-1.49,0.9,37.0,-27.8,76108,2016-08-02 15:30:45:012
0.442,-6.852,-2.173,-0.676,2.151,-1.49,0.9,37.0,-27.8,76208,2016-08-02 15:30:45:112
0.442,-6.852,-2.173,-0.676,2.151,-1.49,-0.5,38.8,-24.3,76308,2016-08-02 15:30:45:212
8.606,-19.609,-11.157,0.797,-0.405,1.124,-0.5,38.8,-24.3,76408,2016-08-02 15:30:45:312
-2.942,-2.25,0.937,0.797,-0.405,1.124,-5.4,42.2,-16.1,76508,2016-08-02 15:30:45:412
-2.942,-2.25,0.937,1.045,0.373,1.445,-5.4,42.2,-16.1,76608,2016-08-02 15:30:45:512
-3.758,-7.357,2.011,1.045,0.373,1.445,-10.0,44.0,-11.2,76708,2016-08-02 15:30:45:612
-3.758,-7.357,2.011,0.925,0.516,0.867,-10.0,44.0,-11.2,76807,2016-08-02 15:30:45:711
0.715,-12.468,-1.433,0.925,0.516,0.867,-7.6,41.9,-16.9,76909,2016-08-02 15:30:45:813
0.715,-12.468,-1.433,0.925,0.516,0.867,-7.6,41.9,-16.9,77008,2016-08-02 15:30:45:912
-2.419,-17.309,2.5,-3.235,0.787,-1.436,-2.8,38.6,-24.7,77108,2016-08-02 15:30:46:012
-2.419,-17.309,2.5,-3.235,0.787,-1.436,-2.8,38.6,-24.7,77208,2016-08-02 15:30:46:112
1.08,-6.036,-0.645,-0.616,-1.911,-0.466,-1.0,38.0,-26.2,77308,2016-08-02 15:30:46:212
8.062,-19.609,-8.865,-0.616,-1.911,-0.466,-1.0,38.0,-26.2,77406,2016-08-02 15:30:46:310
8.062,-19.609,-8.865,-0.616,-1.911,-0.466,-4.1,40.8,-19.3,77507,2016-08-02 15:30:46:411
-2.107,-2.592,-3.748,0.39,-0.907,0.984,-4.1,40.8,-19.3,77609,2016-08-02 15:30:46:513
-2.107,-2.592,-3.748,0.39,-0.907,0.984,-8.8,43.7,-11.9,77708,2016-08-02 15:30:46:612
0.051,-6.05,-0.402,1.399,1.926,-0.125,-8.8,43.7,-11.9,77808,2016-08-02 15:30:46:712
0.051,-6.05,-0.402,1.399,1.926,-0.125,-8.0,43.2,-14.0,77909,2016-08-02 15:30:46:813
1.671,-8.282,-1.219,-0.036,0.173,0.372,-8.0,43.2,-14.0,78009,2016-08-02 15:30:46:913
1.671,-8.282,-1.219,-0.036,0.173,0.372,-3.2,40.6,-21.1,78106,2016-08-02 15:30:47:010
0.831,-12.015,-2.707,-0.036,0.173,0.372,-3.2,40.6,-21.1,78208,2016-08-02 15:30:47:112
1.414,-7.547,-0.914,-1.212,-1.39,-1.248,-0.6,39.4,-25.1,78308,2016-08-02 15:30:47:212
1.414,-7.547,-0.914,-1.212,-1.39,-1.248,-0.6,39.4,-25.1,78408,2016-08-02 15:30:47:312
-1.117,-9.762,-6.029,2.119,-1.22,0.682,-2.8,40.9,-20.9,78508,2016-08-02 15:30:47:412
-1.117,-9.762,-6.029,2.119,-1.22,0.682,-2.8,40.9,-20.9,78607,2016-08-02 15:30:47:511
1.057,-13.115,2.426,2.119,-1.22,0.682,-8.0,43.7,-13.6,78709,2016-08-02 15:30:47:613
1.057,-13.115,2.426,1.445,1.557,-0.266,-8.0,43.7,-13.6,78807,2016-08-02 15:30:47:711
5.192,-7.258,-3.905,1.445,1.557,-0.266,-9.7,43.6,-13.0,78908,2016-08-02 15:30:47:812
5.192,-7.258,-3.905,1.305,0.805,0.371,-9.7,43.6,-13.0,79008,2016-08-02 15:30:47:912
4.072,-8.974,-0.227,1.305,0.805,0.371,-5.8,41.2,-19.4,79108,2016-08-02 15:30:48:012
0.749,-13.163,-1.939,-2.414,0.826,-1.178,-5.8,41.2,-19.4,79208,2016-08-02 15:30:48:112
0.749,-13.163,-1.939,-2.414,0.826,-1.178,-0.5,38.5,-26.0,79308,2016-08-02 15:30:48:212
1.41,-7.222,-0.842,-2.414,0.826,-1.178,-0.5,38.5,-26.0,79408,2016-08-02 15:30:48:312
1.41,-7.222,-0.842,-1.119,1.446,-1.036,0.8,38.9,-25.4,79508,2016-08-02 15:30:48:412
-1.703,-7.596,-4.319,-1.119,1.446,-1.036,0.8,38.9,-25.4,79608,2016-08-02 15:30:48:512
-1.703,-7.596,-4.319,-1.052,0.387,-0.296,-2.6,41.8,-19.7,79708,2016-08-02 15:30:48:612
-8.835,-19.365,0.917,-1.052,0.387,-0.296,-2.6,41.8,-19.7,79808,2016-08-02 15:30:48:712
-8.835,-19.365,0.917,-1.052,0.387,-0.296,-6.1,43.5,-16.8,79908,2016-08-02 15:30:48:812
6.085,-6.784,-2.551,2.44,2.13,0.612,-6.1,43.5,-16.8,80010,2016-08-02 15:30:48:914
3.164,-8.857,1.971,2.44,2.13,0.612,-4.0,41.8,-20.4,80107,2016-08-02 15:30:49:011
3.164,-8.857,1.971,0.238,-0.108,0.188,-4.0,41.8,-20.4,80208,2016-08-02 15:30:49:112
0.523,-11.274,-3.217,0.238,-0.108,0.188,-4.0,41.8,-20.4,80307,2016-08-02 15:30:49:211
0.523,-11.274,-3.217,-1.379,-0.988,-1.179,1.3,38.3,-26.6,80407,2016-08-02 15:30:49:311
2.529,-9.094,-0.022,-1.379,-0.988,-1.179,1.3,38.3,-26.6,80507,2016-08-02 15:30:49:411
2.529,-9.094,-0.022,-1.379,-0.988,-1.179,3.2,37.9,-27.1,80609,2016-08-02 15:30:49:513
-1.918,-4.123,-1.128,1.751,-2.199,0.213,3.2,37.9,-27.1,80708,2016-08-02 15:30:49:612
-1.918,-4.123,-1.128,1.751,-2.199,0.213,-0.8,41.1,-20.5,80807,2016-08-02 15:30:49:711
-6.558,-14.929,5.193,0.434,-0.667,0.096,-0.8,41.1,-20.5,80908,2016-08-02 15:30:49:812
8.807,-14.434,-0.356,0.434,-0.667,0.096,-6.1,44.6,-14.3,81006,2016-08-02 15:30:49:910
8.807,-14.434,-0.356,0.434,-0.667,0.096,-6.1,44.6,-14.3,81108,2016-08-02 15:30:50:012
0.854,-9.653,-0.199,1.19,0.887,0.432,-6.4,43.4,-16.1,81208,2016-08-02 15:30:50:112
0.854,-9.653,-0.199,1.19,0.887,0.432,-6.4,43.4,-16.1,81306,2016-08-02 15:30:50:210
2.228,-12.811,-4.061,-0.748,0.186,-0.598,-2.0,40.1,-23.0,81407,2016-08-02 15:30:50:311
2.228,-12.811,-4.061,-0.748,0.186,-0.598,-2.0,40.1,-23.0,81508,2016-08-02 15:30:50:412
1.278,-8.269,1.606,-1.141,0.146,-1.75,2.3,37.8,-28.3,81607,2016-08-02 15:30:50:511
1.278,-8.269,1.606,-1.141,0.146,-1.75,2.3,37.8,-28.3,81708,2016-08-02 15:30:50:612
-2.645,-2.721,0.392,-1.141,0.146,-1.75,-0.1,39.4,-23.0,81808,2016-08-02 15:30:50:712
-6.172,-13.864,2.928,-1.189,-0.714,-1.27,-0.1,39.4,-23.0,81907,2016-08-02 15:30:50:811
-6.172,-13.864,2.928,-1.189,-0.714,-1.27,-4.9,43.1,-15.8,82008,2016-08-02 15:30:50:912
5.549,-19.609,2.528,0.351,-2.028,1.798,-4.9,43.1,-15.8,82107,2016-08-02 15:30:51:011
5.549,-19.609,2.528,0.351,-2.028,1.798,-7.1,43.4,-14.5,82206,2016-08-02 15:30:51:110
1.51,-9.623,0.19,0.351,-2.028,1.798,-7.1,43.4,-14.5,82308,2016-08-02 15:30:51:212
1.51,-9.623,0.19,0.86,0.613,0.811,-2.5,41.0,-21.9,82408,2016-08-02 15:30:51:312
2.626,-13.626,-3.074,0.86,0.613,0.811,-2.5,41.0,-21.9,82507,2016-08-02 15:30:51:411
2.626,-13.626,-3.074,-2.568,-0.305,-0.676,2.6,37.1,-28.5,82609,2016-08-02 15:30:51:513
0.277,-10.588,0.12,-2.568,-0.305,-0.676,2.6,37.1,-28.5,82708,2016-08-02 15:30:51:612
-2.69,-3.845,0.063,0.616,-2.378,0.055,2.3,38.4,-26.4,82806,2016-08-02 15:30:51:710
-2.69,-3.845,0.063,0.616,-2.378,0.055,2.3,38.4,-26.4,82908,2016-08-02 15:30:51:812
-6.955,-14.83,2.846,0.616,-2.378,0.055,-2.8,41.7,-19.0,83007,2016-08-02 15:30:51:911
-6.955,-14.83,2.846,-0.757,-0.983,0.669,-2.8,41.7,-19.0,83107,2016-08-02 15:30:52:011
7.663,-19.479,3.859,-0.757,-0.983,0.669,-7.0,44.0,-14.3,83208,2016-08-02 15:30:52:112
7.663,-19.479,3.859,0.731,1.209,0.24,-7.0,44.0,-14.3,83307,2016-08-02 15:30:52:211
-0.075,-9.425,-1.165,0.731,1.209,0.24,-4.4,42.4,-19.2,83406,2016-08-02 15:30:52:310
-0.075,-9.425,-1.165,0.731,1.209,0.24,-4.4,42.4,-19.2,83508,2016-08-02 15:30:52:412
1.156,-11.908,-4.34,-0.129,0.451,-0.313,0.8,39.2,-25.9,83608,2016-08-02 15:30:52:512
-3.161,-11.855,-3.982,-0.129,0.451,-0.313,0.8,39.2,-25.9,83707,2016-08-02 15:30:52:611
-3.161,-11.855,-3.982,-1.162,2.099,-1.05,2.9,38.9,-26.9,83808,2016-08-02 15:30:52:712
-3.372,-1.985,1.591,-1.162,2.099,-1.05,2.9,38.9,-26.9,83907,2016-08-02 15:30:52:811
-3.372,-1.985,1.591,-0.892,-0.012,-0.387,-1.1,41.6,-20.1,84007,2016-08-02 15:30:52:911
-6.074,-8.845,-1.095,-0.892,-0.012,-0.387,-1.1,41.6,-20.1,84107,2016-08-02 15:30:53:011
-6.074,-8.845,-1.095,-0.892,-0.012,-0.387,-5.9,44.6,-14.3,84209,2016-08-02 15:30:53:113
0.752,-18.182,5.154,0.328,-1.204,1.482,-5.9,44.6,-14.3,84307,2016-08-02 15:30:53:211
0.752,-18.182,5.154,0.328,-1.204,1.482,-5.9,43.7,-16.0,84410,2016-08-02 15:30:53:314
1.401,-10.373,-2.206,0.819,1.125,0.991,-5.9,43.7,-16.0,84506,2016-08-02 15:30:53:410
2.554,-12.585,-1.882,0.819,1.125,0.991,-0.7,40.0,-23.8,84606,2016-08-02 15:30:53:510
2.554,-12.585,-1.882,0.819,1.125,0.991,-0.7,40.0,-23.8,84708,2016-08-02 15:30:53:612
-3.25,-12.039,-3.268,-3.091,0.078,-0.949,3.5,37.6,-28.0,84806,2016-08-02 15:30:53:710
-3.25,-12.039,-3.268,-3.091,0.078,-0.949,3.5,37.6,-28.0,84906,2016-08-02 15:30:53:810
-3.2,-2.916,0.812,0.019,-2.459,-0.265,2.8,39.5,-23.8,85007,2016-08-02 15:30:53:911
-3.2,-2.916,0.812,0.019,-2.459,-0.265,2.8,39.5,-23.8,85108,2016-08-02 15:30:54:012
-3.26,-6.998,-0.679,0.666,-1.314,1.276,2.8,39.5,-23.8,85206,2016-08-02 15:30:54:110
-3.26,-6.998,-0.679,0.666,-1.314,1.276,-2.2,43.4,-16.6,85307,2016-08-02 15:30:54:211
-0.035,-12.533,4.08,0.666,-1.314,1.276,-2.2,43.4,-16.6,85408,2016-08-02 15:30:54:312
-0.88,-9.531,-2.088,0.617,2.641,-0.01,-4.0,44.3,-15.5,85507,2016-08-02 15:30:54:411
-0.88,-9.531,-2.088,0.617,2.641,-0.01,-4.0,44.3,-15.5,85609,2016-08-02 15:30:54:513
1.101,-12.22,-0.581,-0.653,0.502,-0.148,-0.4,41.0,-21.9,85708,2016-08-02 15:30:54:612
1.101,-12.22,-0.581,-0.653,0.502,-0.148,-0.4,41.0,-21.9,85807,2016-08-02 15:30:54:711
-1.824,-11.199,-1.097,-0.653,0.502,-0.148,4.9,37.2,-27.7,85908,2016-08-02 15:30:54:812
-1.824,-11.199,-1.097,-1.778,2.435,-0.914,4.9,37.2,-27.7,86009,2016-08-02 15:30:54:913
-3.718,-2.479,1.437,-1.778,2.435,-0.914,5.3,37.8,-26.0,86107,2016-08-02 15:30:55:011
-3.718,-2.479,1.437,-0.988,0.07,-0.065,5.3,37.8,-26.0,86208,2016-08-02 15:30:55:112
-4.446,-9.218,-1.626,-0.988,0.07,-0.065,1.1,41.8,-19.0,86308,2016-08-02 15:30:55:212
-0.505,-18.171,2.297,0.383,-1.024,2.028,1.1,41.8,-19.0,86407,2016-08-02 15:30:55:311
-0.505,-18.171,2.297,0.383,-1.024,2.028,-1.9,44.2,-15.1,86509,2016-08-02 15:30:55:413
0.723,-9.519,-1.794,0.383,-1.024,2.028,-1.9,44.2,-15.1,86608,2016-08-02 15:30:55:512
0.723,-9.519,-1.794,0.7,0.717,0.958,0.1,42.2,-19.3,86708,2016-08-02 15:30:55:612
1.99,-12.82,-2.521,0.7,0.717,0.958,0.1,42.2,-19.3,86807,2016-08-02 15:30:55:711
1.99,-12.82,-2.521,-2.917,0.042,-1.091,5.2,37.6,-26.2,86908,2016-08-02 15:30:55:812
-0.292,-11.936,-0.239,-2.917,0.042,-1.091,5.2,37.6,-26.2,87007,2016-08-02 15:30:55:911
-0.292,-11.936,-0.239,-2.917,0.042,-1.091,6.7,37.2,-27.2,87107,2016-08-02 15:30:56:011
-3.925,-2.058,0.624,0.316,-3.299,-0.016,6.7,37.2,-27.2,87209,2016-08-02 15:30:56:113
-3.925,-2.058,0.624,0.316,-3.299,-0.016,2.2,40.1,-21.8,87308,2016-08-02 15:30:56:212
-5.593,-9.098,1.062,-0.389,-0.613,1.724,2.2,40.1,-21.8,87408,2016-08-02 15:30:56:312
-0.747,-14.876,4.67,-0.389,-0.613,1.724,-3.1,44.2,-16.3,87508,2016-08-02 15:30:56:412
-0.747,-14.876,4.67,-0.389,-0.613,1.724,-3.1,44.2,-16.3,87607,2016-08-02 15:30:56:511
0.028,-9.658,-1.24,0.697,2.297,0.33,-3.3,43.4,-17.9,87708,2016-08-02 15:30:56:612
0.028,-9.658,-1.24,0.697,2.297,0.33,-3.3,43.4,-17.9,87808,2016-08-02 15:30:56:712
2.103,-12.353,-1.906,-0.674,0.808,-0.231,2.6,38.8,-24.4,87907,2016-08-02 15:30:56:811
2.103,-12.353,-1.906,-0.674,0.808,-0.231,2.6,38.8,-24.4,88006,2016-08-02 15:30:56:910
-1.416,-11.299,-3.024,-1.012,3.367,-1.565,7.0,36.2,-28.3,88108,2016-08-02 15:30:57:012
-1.416,-11.299,-3.024,-1.012,3.367,-1.565,7.0,36.2,-28.3,88208,2016-08-02 15:30:57:112
-2.544,-2.192,0.998,-1.012,3.367,-1.565,5.0,39.1,-23.6,88308,2016-08-02 15:30:57:212
-6.895,-11.3,-1.91,-0.566,-0.279,-0.321,5.0,39.1,-23.6,88409,2016-08-02 15:30:57:313
-6.895,-11.3,-1.91,-0.566,-0.279,-0.321,0.1,43.9,-17.5,88509,2016-08-02 15:30:57:413
2.941,-18.064,2.034,0.314,0.142,1.857,0.1,43.9,-17.5,88607,2016-08-02 15:30:57:511
2.941,-18.064,2.034,0.314,0.142,1.857,-1.0,44.8,-16.3,88708,2016-08-02 15:30:57:612
1.753,-9.958,-1.684,0.314,0.142,1.857,-1.0,44.8,-16.3,88808,2016-08-02 15:30:57:712
1.753,-9.958,-1.684,0.829,1.134,0.876,4.1,40.6,-22.9,88909,2016-08-02 15:30:57:813
1.144,-12.183,1.525,0.829,1.134,0.876,4.1,40.6,-22.9,89008,2016-08-02 15:30:57:912
1.144,-12.183,1.525,-3.217,0.33,-1.513,9.5,35.9,-28.9,89109,2016-08-02 15:30:58:013
-3.226,-13.415,-3.469,-3.217,0.33,-1.513,9.5,35.9,-28.9,89208,2016-08-02 15:30:58:112
-3.468,-3.084,1.142,-0.385,-2.472,-0.366,8.6,36.7,-26.4,89308,2016-08-02 15:30:58:212
-3.468,-3.084,1.142,-0.385,-2.472,-0.366,8.6,36.7,-26.4,89409,2016-08-02 15:30:58:313
2.962,-7.702,-5.197,-0.385,-2.472,-0.366,3.5,41.5,-20.0,89507,2016-08-02 15:30:58:411
2.962,-7.702,-5.197,-0.25,0.278,0.837,3.5,41.5,-20.0,89608,2016-08-02 15:30:58:512
-3.651,-8.325,4.143,-0.25,0.278,0.837,-0.2,44.6,-16.8,89708,2016-08-02 15:30:58:612
-3.651,-8.325,4.143,2.004,-0.093,-0.127,-0.2,44.6,-16.8,89808,2016-08-02 15:30:58:712
-3.346,-9.812,-0.91,2.004,-0.093,-0.127,-0.2,44.6,-16.8,89908,2016-08-02 15:30:58:812
-3.346,-9.812,-0.91,2.004,-0.093,-0.127,3.5,41.5,-21.9,90010,2016-08-02 15:30:58:914
0.585,-12.905,-3.288,0.171,0.01,0.041,3.5,41.5,-21.9,90108,2016-08-02 15:30:59:012
-5.924,-17.847,-0.07,0.171,0.01,0.041,9.0,36.4,-28.0,90208,2016-08-02 15:30:59:112
-5.924,-17.847,-0.07,-1.559,1.92,-3.311,9.0,36.4,-28.0,90308,2016-08-02 15:30:59:212
-1.815,-0.891,0.666,-1.559,1.92,-3.311,10.4,36.2,-27.0,90408,2016-08-02 15:30:59:312
-1.815,-0.891,0.666,-0.065,-1.035,-0.516,10.4,36.2,-27.0,90508,2016-08-02 15:30:59:412
3.713,-15.683,-19.589,-0.065,-1.035,-0.516,3.5,40.8,-12.9,90610,2016-08-02 15:30:59:514
3.713,-15.683,-19.589,-0.065,-1.035,-0.516,3.5,40.8,-12.9,90708,2016-08-02 15:30:59:612
-0.372,-13.607,-3.833,2.292,1.013,1.001,-4.5,46.0,2.9,90808,2016-08-02 15:30:59:712
-0.372,-13.607,-3.833,2.292,1.013,1.001,-4.5,46.0,2.9,90911,2016-08-02 15:30:59:815
0.842,-9.068,-2.604,1.412,0.266,1.06,-4.8,45.7,2.1,91007,2016-08-02 15:30:59:911
-1.954,-9.699,-2.462,1.412,0.266,1.06,-4.8,45.7,2.1,91108,2016-08-02 15:31:00:012
-1.954,-9.699,-2.462,1.412,0.266,1.06,1.3,43.6,-11.9,91210,2016-08-02 15:31:00:114
0.321,-11.334,-0.687,0.735,-0.355,0.461,1.3,43.6,-11.9,91308,2016-08-02 15:31:00:212
0.321,-11.334,-0.687,0.735,-0.355,0.461,8.6,37.9,-26.6,91408,2016-08-02 15:31:00:312
-4.253,-17.306,1.667,-2.524,0.636,-1.244,8.6,37.9,-26.6,91511,2016-08-02 15:31:00:415
-4.253,-17.306,1.667,-2.524,0.636,-1.244,10.8,35.2,-30.0,91608,2016-08-02 15:31:00:512
-0.075,-3.907,0.593,0.422,-2.487,0.155,10.8,35.2,-30.0,91708,2016-08-02 15:31:00:612
-0.075,-3.907,0.593,0.422,-2.487,0.155,7.2,38.4,-24.8,91811,2016-08-02 15:31:00:715
3.587,-12.17,-7.873,0.422,-2.487,0.155,7.2,38.4,-24.8,91909,2016-08-02 15:31:00:813
-2.438,-5.565,3.345,-0.55,-0.969,0.963,1.9,43.6,-19.0,92006,2016-08-02 15:31:00:910
-2.438,-5.565,3.345,-0.55,-0.969,0.963,1.9,43.6,-19.0,92110,2016-08-02 15:31:01:014
-1.731,-9.503,2.3,0.918,1.086,0.058,-0.8,44.6,-18.1,92208,2016-08-02 15:31:01:112
-1.731,-9.503,2.3,0.918,1.086,0.058,-0.8,44.6,-18.1,92308,2016-08-02 15:31:01:212
2.014,-12.251,-1.975,0.918,1.086,0.058,1.6,41.6,-23.3,92411,2016-08-02 15:31:01:315
2.014,-12.251,-1.975,-0.502,0.822,-0.076,1.6,41.6,-23.3,92509,2016-08-02 15:31:01:413
-4.186,-14.368,4.079,-0.502,0.822,-0.076,5.9,37.2,-29.0,92607,2016-08-02 15:31:01:511
-4.186,-14.368,4.079,-1.032,3.063,-1.123,5.9,37.2,-29.0,92707,2016-08-02 15:31:01:611
-0.685,-4.82,0.798,-1.032,3.063,-1.123,5.8,37.9,-27.7,92808,2016-08-02 15:31:01:712
5.198,-19.609,-10.386,1.086,-0.601,0.991,5.8,37.9,-27.7,92908,2016-08-02 15:31:01:812
5.198,-19.609,-10.386,1.086,-0.601,0.991,1.3,42.4,-21.1,93008,2016-08-02 15:31:01:912
-4.602,-7.63,-3.798,1.086,-0.601,0.991,1.3,42.4,-21.1,93108,2016-08-02 15:31:02:012
-4.602,-7.63,-3.798,1.177,1.745,1.317,-2.6,45.0,-16.8,93208,2016-08-02 15:31:02:112
-4.055,-8.383,-0.775,1.177,1.745,1.317,-2.6,45.0,-16.8,93308,2016-08-02 15:31:02:212
-4.055,-8.383,-0.775,0.544,0.668,1.18,-0.2,42.8,-20.6,93408,2016-08-02 15:31:02:312
3.878,-9.948,-0.142,0.544,0.668,1.18,-0.2,42.8,-20.6,93508,2016-08-02 15:31:02:412
-3.107,-14.637,-1.125,-2.722,-0.229,-1.153,5.0,39.0,-26.1,93608,2016-08-02 15:31:02:512
-3.107,-14.637,-1.125,-2.722,-0.229,-1.153,5.0,39.0,-26.1,93708,2016-08-02 15:31:02:612
1.228,-7.995,-0.525,-2.722,-0.229,-1.153,7.0,38.2,-26.9,93807,2016-08-02 15:31:02:711
1.228,-7.995,-0.525,-1.088,-0.446,-0.77,7.0,38.2,-26.9,93908,2016-08-02 15:31:02:812
-3.196,-12.222,-4.661,-1.088,-0.446,-0.77,2.8,41.6,-20.6,94007,2016-08-02 15:31:02:911
-3.196,-12.222,-4.661,-0.347,0.75,-0.573,2.8,41.6,-20.6,94108,2016-08-02 15:31:03:012
-2.394,-17.298,1.593,-0.347,0.75,-0.573,-3.0,45.0,-15.1,94208,2016-08-02 15:31:03:112
-2.394,-17.298,1.593,-0.347,0.75,-0.573,-3.0,45.0,-15.1,94309,2016-08-02 15:31:03:213
3.352,-8.126,-4.313,3.255,1.027,0.304,-3.0,45.0,-15.1,94409,2016-08-02 15:31:03:313
3.352,-8.126,-4.313,3.255,1.027,0.304,-4.2,44.4,-16.7,94509,2016-08-02 15:31:03:413
3.097,-9.946,0.539,0.195,0.207,-0.095,-4.2,44.4,-16.7,94607,2016-08-02 15:31:03:511
0.615,-11.86,-2.613,0.195,0.207,-0.095,-0.8,40.9,-22.6,94708,2016-08-02 15:31:03:612
0.615,-11.86,-2.613,0.195,0.207,-0.095,-0.8,40.9,-22.6,94808,2016-08-02 15:31:03:712
2.017,-8.719,0.724,-1.549,-0.938,-1.141,3.4,38.6,-26.7,94908,2016-08-02 15:31:03:812
2.017,-8.719,0.724,-1.549,-0.938,-1.141,3.4,38.6,-26.7,95008,2016-08-02 15:31:03:912
-3.448,-4.588,-0.19,1.223,-2.739,0.163,2.0,39.8,-22.7,95108,2016-08-02 15:31:04:012
-3.448,-4.588,-0.19,1.223,-2.739,0.163,2.0,39.8,-22.7,95207,2016-08-02 15:31:04:111
-6.958,-19.002,0.115,0.849,1.355,-0.782,-4.0,42.9,-15.4,95307,2016-08-02 15:31:04:211
-6.958,-19.002,0.115,0.849,1.355,-0.782,-4.0,42.9,-15.4,95408,2016-08-02 15:31:04:312
2.713,-10.582,-3.045,0.849,1.355,-0.782,-7.9,43.7,-11.8,95508,2016-08-02 15:31:04:412
0.543,-9.932,-0.612,1.304,1.426,0.472,-7.9,43.7,-11.8,95608,2016-08-02 15:31:04:512
0.543,-9.932,-0.612,1.304,1.426,0.472,-6.4,42.2,-16.5,95706,2016-08-02 15:31:04:610
2.27,-11.726,-4.676,-0.59,0.181,-0.073,-6.4,42.2,-16.5,95808,2016-08-02 15:31:04:712
2.27,-11.726,-4.676,-0.59,0.181,-0.073,-1.9,39.6,-22.8,95907,2016-08-02 15:31:04:811
0.312,-10.687,-0.08,-0.59,0.181,-0.073,-1.9,39.6,-22.8,96008,2016-08-02 15:31:04:912
0.312,-10.687,-0.08,-1.425,0.436,-1.404,-0.6,39.8,-23.0,96108,2016-08-02 15:31:05:012
-4.918,-2.837,1.856,-1.425,0.436,-1.404,-0.6,39.8,-23.0,96208,2016-08-02 15:31:05:112
-4.918,-2.837,1.856,-1.467,-0.568,-0.645,-5.5,41.6,-15.1,96308,2016-08-02 15:31:05:212
0.591,-7.629,3.983,-1.467,-0.568,-0.645,-5.5,41.6,-15.1,96408,2016-08-02 15:31:05:312
-4.293,-18.189,0.293,0.233,-2.03,2.067,-12.4,43.0,-7.2,96508,2016-08-02 15:31:05:412
-4.293,-18.189,0.293,0.233,-2.03,2.067,-12.4,43.0,-7.2,96608,2016-08-02 15:31:05:512
0.655,-9.234,0.976,0.233,-2.03,2.067,-14.3,42.6,-6.3,96708,2016-08-02 15:31:05:612
0.655,-9.234,0.976,0.612,1.196,0.868,-14.3,42.6,-6.3,96808,2016-08-02 15:31:05:712
4.638,-9.783,-1.677,0.612,1.196,0.868,-11.0,42.4,-12.1,96908,2016-08-02 15:31:05:812
4.638,-9.783,-1.677,-2.267,1.471,-1.312,-11.0,42.4,-12.1,97009,2016-08-02 15:31:05:913
-3.926,-11.565,-5.236,-2.267,1.471,-1.312,-7.2,43.0,-15.1,97109,2016-08-02 15:31:06:013
-3.926,-11.565,-5.236,-2.267,1.471,-1.312,-7.2,43.0,-15.1,97208,2016-08-02 15:31:06:112
-2.033,-3.751,0.787,-0.466,-1.577,-0.464,-9.1,43.1,-13.0,97308,2016-08-02 15:31:06:212
1.359,-6.525,-0.019,-0.466,-1.577,-0.464,-9.1,43.1,-13.0,97406,2016-08-02 15:31:06:310
1.359,-6.525,-0.019,0.415,-1.878,0.139,-13.7,42.7,-6.5,97508,2016-08-02 15:31:06:412
-0.781,-5.957,6.641,0.415,-1.878,0.139,-13.7,42.7,-6.5,97607,2016-08-02 15:31:06:511
-0.781,-5.957,6.641,0.951,-1.719,-0.178,-16.7,42.4,-3.1,97708,2016-08-02 15:31:06:612
-3.312,-9.205,-1.784,0.951,-1.719,-0.178,-16.7,42.4,-3.1,97808,2016-08-02 15:31:06:712
-3.312,-9.205,-1.784,0.951,-1.719,-0.178,-14.5,42.9,-5.4,97908,2016-08-02 15:31:06:812
4.487,-12.306,0.689,-0.432,0.284,0.407,-14.5,42.9,-5.4,98008,2016-08-02 15:31:06:912
4.487,-12.306,0.689,-0.432,0.284,0.407,-11.2,43.4,-9.3,98108,2016-08-02 15:31:07:012
-2.138,-11.697,0.521,-1.068,0.817,-1.366,-11.2,43.4,-9.3,98208,2016-08-02 15:31:07:112
-3.371,-4.46,0.887,-1.068,0.817,-1.366,-11.8,43.1,-6.5,98308,2016-08-02 15:31:07:212
-3.371,-4.46,0.887,-1.068,0.817,-1.366,-11.8,43.1,-6.5,98408,2016-08-02 15:31:07:312
4.293,-11.833,-5.485,1.358,-1.061,1.057,-15.5,41.6,2.1,98508,2016-08-02 15:31:07:412
4.293,-11.833,-5.485,1.358,-1.061,1.057,-15.5,41.6,2.1,98607,2016-08-02 15:31:07:511
-1.546,-2.231,5.173,1.414,1.265,0.103,-18.5,39.5,10.9,98708,2016-08-02 15:31:07:612
-1.546,-2.231,5.173,1.414,1.265,0.103,-18.5,39.5,10.9,98808,2016-08-02 15:31:07:712
-3.633,-9.414,0.915,1.013,1.137,1.06,-17.2,39.7,11.3,98908,2016-08-02 15:31:07:812
-3.633,-9.414,0.915,1.013,1.137,1.06,-17.2,39.7,11.3,99007,2016-08-02 15:31:07:911
2.147,-12.516,0.181,1.013,1.137,1.06,-14.4,42.0,3.8,99107,2016-08-02 15:31:08:011
-3.548,-13.668,-0.179,-3.215,0.372,-1.363,-14.4,42.0,3.8,99208,2016-08-02 15:31:08:112
-3.548,-13.668,-0.179,-3.215,0.372,-1.363,-12.8,43.6,-0.2,99306,2016-08-02 15:31:08:210
-2.499,-3.215,1.336,-0.763,-0.193,-0.657,-12.8,43.6,-0.2,99408,2016-08-02 15:31:08:312
-2.499,-3.215,1.336,-0.763,-0.193,-0.657,-15.2,40.9,5.7,99510,2016-08-02 15:31:08:414
0.184,-5.657,-2.979,-0.763,-0.193,-0.657,-15.2,40.9,5.7,99608,2016-08-02 15:31:08:512
0.184,-5.657,-2.979,0.182,-0.973,0.802,-15.2,40.9,5.7,99708,2016-08-02 15:31:08:612
-2.509,-7.171,3.807,0.182,-0.973,0.802,-18.1,38.4,14.3,99808,2016-08-02 15:31:08:712
-2.509,-7.171,3.807,1.94,0.354,-0.232,-18.1,38.4,14.3,99908,2016-08-02 15:31:08:812
-1.805,-10.331,-1.032,1.94,0.354,-0.232,-18.5,38.3,14.3,100012,2016-08-02 15:31:08:916
-0.913,-12.714,-0.666,-0.045,-0.056,0.13,-18.5,38.3,14.3,100106,2016-08-02 15:31:09:010
-0.913,-12.714,-0.666,-0.045,-0.056,0.13,-15.8,41.7,5.9,100208,2016-08-02 15:31:09:112
-2.604,-13.776,5.698,-0.045,-0.056,0.13,-15.8,41.7,5.9,100308,2016-08-02 15:31:09:212
-2.604,-13.776,5.698,-1.249,-2.142,-1.556,-12.8,44.4,-1.4,100408,2016-08-02 15:31:09:312
-2.174,-4.977,0.693,-1.249,-2.142,-1.556,-12.8,44.4,-1.4,100509,2016-08-02 15:31:09:413
-2.174,-4.977,0.693,1.534,-1.122,0.921,-14.0,42.2,2.9,100608,2016-08-02 15:31:09:512
4.911,-14.601,-8.817,1.534,-1.122,0.921,-14.0,42.2,2.9,100706,2016-08-02 15:31:09:610
4.911,-14.601,-8.817,1.534,-1.122,0.921,-17.3,38.3,12.7,100807,2016-08-02 15:31:09:711
-2.543,-5.18,3.243,1.743,0.547,0.076,-17.3,38.3,12.7,100908,2016-08-02 15:31:09:812
-4.076,-8.505,0.757,1.743,0.547,0.076,-18.7,35.7,18.4,101009,2016-08-02 15:31:09:913
-4.076,-8.505,0.757,1.122,1.151,0.753,-18.7,35.7,18.4,101108,2016-08-02 15:31:10:012
-1.171,-12.738,-1.932,1.122,1.151,0.753,-16.1,39.2,12.3,101208,2016-08-02 15:31:10:112
-1.171,-12.738,-1.932,-1.6,-0.512,-0.62,-16.1,39.2,12.3,101307,2016-08-02 15:31:10:211
-2.495,-16.706,1.915,-1.6,-0.512,-0.62,-13.3,43.1,2.9,101408,2016-08-02 15:31:10:312
-2.495,-16.706,1.915,-1.6,-0.512,-0.62,-13.3,43.1,2.9,101508,2016-08-02 15:31:10:412
2.139,-6.76,-1.535,-1.067,1.606,-1.345,-14.0,43.2,1.0,101606,2016-08-02 15:31:10:510
2.139,-6.76,-1.535,-1.067,1.606,-1.345,-14.0,43.2,1.0,101708,2016-08-02 15:31:10:612
11.898,-19.609,-13.333,-0.889,-1.664,-0.984,-17.1,39.5,7.7,101808,2016-08-02 15:31:10:712
-1.674,-3.516,-2.079,-0.889,-1.664,-0.984,-17.1,39.5,7.7,101907,2016-08-02 15:31:10:811
-1.674,-3.516,-2.079,-0.889,-1.664,-0.984,-20.1,36.8,14.6,102008,2016-08-02 15:31:10:912
-2.805,-7.532,0.32,0.567,-2.158,1.771,-20.1,36.8,14.6,102106,2016-08-02 15:31:11:010
-2.805,-7.532,0.32,0.567,-2.158,1.771,-18.1,39.4,11.6,102207,2016-08-02 15:31:11:111
-0.487,-12.113,-1.333,1.056,0.216,0.468,-18.1,39.4,11.6,102308,2016-08-02 15:31:11:212
-0.487,-12.113,-1.333,1.056,0.216,0.468,-14.9,42.7,3.8,102408,2016-08-02 15:31:11:312
-1.259,-14.794,-2.118,-2.095,0.31,-0.952,-14.9,42.7,3.8,102507,2016-08-02 15:31:11:411
-1.259,-14.794,-2.118,-2.095,0.31,-0.952,-13.6,44.5,-0.7,102609,2016-08-02 15:31:11:513
2.925,-6.871,-2.285,-2.095,0.31,-0.952,-13.6,44.5,-0.7,102708,2016-08-02 15:31:11:612
-0.292,-18.037,-13.911,0.425,-1.556,0.19,-16.9,42.1,3.0,102807,2016-08-02 15:31:11:711
-0.292,-18.037,-13.911,0.425,-1.556,0.19,-16.9,42.1,3.0,102906,2016-08-02 15:31:11:810
-0.543,-5.746,-3.528,-0.291,0.125,0.058,-20.0,39.7,10.0,103008,2016-08-02 15:31:11:912
-0.543,-5.746,-3.528,-0.291,0.125,0.058,-20.0,39.7,10.0,103107,2016-08-02 15:31:12:011
-3.06,-6.556,-2.274,-0.291,0.125,0.058,-19.6,40.0,11.0,103208,2016-08-02 15:31:12:112
-3.06,-6.556,-2.274,0.977,1.059,0.502,-19.6,40.0,11.0,103308,2016-08-02 15:31:12:212
1.583,-11.54,1.079,0.977,1.059,0.502,-16.3,42.9,5.7,103407,2016-08-02 15:31:12:311
1.583,-11.54,1.079,-0.375,-0.008,-0.546,-16.3,42.9,5.7,103508,2016-08-02 15:31:12:412
-1.409,-14.67,-1.031,-0.375,-0.008,-0.546,-13.7,44.8,1.1,103609,2016-08-02 15:31:12:513
2.174,-8.256,-1.478,-1.518,0.564,-1.378,-13.7,44.8,1.1,103707,2016-08-02 15:31:12:611
2.174,-8.256,-1.478,-1.518,0.564,-1.378,-15.4,43.2,1.8,103808,2016-08-02 15:31:12:712
-0.929,-8.997,-6.816,-1.518,0.564,-1.378,-15.4,43.2,1.8,103906,2016-08-02 15:31:12:810
-0.929,-8.997,-6.816,-0.577,-0.393,-0.278,-18.3,39.7,10.2,104007,2016-08-02 15:31:12:911
2.807,-9.502,5.668,-0.577,-0.393,-0.278,-18.3,39.7,10.2,104106,2016-08-02 15:31:13:010
2.807,-9.502,5.668,0.367,-0.422,2.517,-18.3,39.7,10.2,104208,2016-08-02 15:31:13:112
1.734,-6.236,-3.75,0.367,-0.422,2.517,-20.2,37.8,14.9,104307,2016-08-02 15:31:13:211
1.734,-6.236,-3.75,0.367,-0.422,2.517,-20.2,37.8,14.9,104408,2016-08-02 15:31:13:312
1.333,-9.558,0.397,0.912,0.56,0.919,-18.1,40.0,11.1,104508,2016-08-02 15:31:13:412
1.606,-11.621,-2.899,0.912,0.56,0.919,-18.1,40.0,11.1,104607,2016-08-02 15:31:13:511
1.606,-11.621,-2.899,-3.087,-0.154,-1.364,-15.0,43.2,1.9,104709,2016-08-02 15:31:13:613
2.239,-7.994,1.237,-3.087,-0.154,-1.364,-15.0,43.2,1.9,104809,2016-08-02 15:31:13:713
2.239,-7.994,1.237,-0.23,-1.721,-0.559,-14.1,44.2,-0.4,104906,2016-08-02 15:31:13:810
-1.74,-4.01,-1.091,-0.23,-1.721,-0.559,-14.1,44.2,-0.4,105008,2016-08-02 15:31:13:912
-1.74,-4.01,-1.091,-0.23,-1.721,-0.559,-16.7,41.0,6.1,105108,2016-08-02 15:31:14:012
-7.14,-12.357,0.919,-0.266,-0.794,0.879,-16.7,41.0,6.1,105207,2016-08-02 15:31:14:111
-7.14,-12.357,0.919,-0.266,-0.794,0.879,-19.3,38.1,15.2,105308,2016-08-02 15:31:14:212
1.113,-18.14,2.525,2.001,1.797,-0.029,-19.3,38.1,15.2,105408,2016-08-02 15:31:14:312
0.897,-9.858,-0.942,2.001,1.797,-0.029,-18.3,38.5,16.2,105506,2016-08-02 15:31:14:410
0.897,-9.858,-0.942,2.001,1.797,-0.029,-18.3,38.5,16.2,105607,2016-08-02 15:31:14:511
1.932,-12.543,-3.938,0.257,-0.243,-0.036,-15.9,41.5,8.5,105706,2016-08-02 15:31:14:610
1.932,-12.543,-3.938,0.257,-0.243,-0.036,-15.9,41.5,8.5,105807,2016-08-02 15:31:14:711
-4.052,-11.162,-0.505,-1.411,-1.651,-1.229,-13.4,44.3,-0.5,105910,2016-08-02 15:31:14:814
-4.052,-11.162,-0.505,-1.411,-1.651,-1.229,-13.4,44.3,-0.5,106008,2016-08-02 15:31:14:912
-3.098,-1.925,1.308,1.871,-1.131,0.628,-15.0,42.8,1.0,106106,2016-08-02 15:31:15:010
-3.098,-1.925,1.308,1.871,-1.131,0.628,-15.0,42.8,1.0,106208,2016-08-02 15:31:15:112
-5.808,-8.627,-0.696,1.871,-1.131,0.628,-18.4,39.5,9.7,106307,2016-08-02 15:31:15:211
-5.808,-8.627,-0.696,1.092,1.273,-0.194,-18.4,39.5,9.7,106406,2016-08-02 15:31:15:310
-0.676,-19.276,4.084,1.092,1.273,-0.194,-20.8,36.9,15.5,106508,2016-08-02 15:31:15:412
-0.153,-9.503,-1.032,1.159,1.217,0.68,-20.8,36.9,15.5,106608,2016-08-02 15:31:15:512
-0.153,-9.503,-1.032,1.159,1.217,0.68,-18.6,39.1,11.2,106707,2016-08-02 15:31:15:611
2.886,-11.861,1.907,1.159,1.217,0.68,-18.6,39.1,11.2,106808,2016-08-02 15:31:15:712
2.886,-11.861,1.907,-0.754,-0.937,-0.364,-15.1,41.6,2.6,106908,2016-08-02 15:31:15:812
-5.103,-13.454,3.442,-0.754,-0.937,-0.364,-15.1,41.6,2.6,107006,2016-08-02 15:31:15:910
-5.103,-13.454,3.442,-1.002,0.565,-1.14,-13.7,43.2,-2.3,107108,2016-08-02 15:31:16:012
-1.474,-5.325,-0.661,-1.002,0.565,-1.14,-13.7,43.2,-2.3,107208,2016-08-02 15:31:16:112
-1.474,-5.325,-0.661,-1.002,0.565,-1.14,-16.1,41.0,3.8,107307,2016-08-02 15:31:16:211
5.411,-14.654,-7.999,-0.481,-0.501,-0.125,-16.1,41.0,3.8,107406,2016-08-02 15:31:16:310
-4.55,-4.495,-1.555,-0.481,-0.501,-0.125,-18.7,38.3,12.7,107508,2016-08-02 15:31:16:412
-4.55,-4.495,-1.555,1.892,2.768,0.898,-18.7,38.3,12.7,107606,2016-08-02 15:31:16:510
-2.031,-7.233,-1.327,1.892,2.768,0.898,-18.4,37.9,15.6,107708,2016-08-02 15:31:16:612
-2.031,-7.233,-1.327,0.66,-0.198,0.564,-18.4,37.9,15.6,107808,2016-08-02 15:31:16:712
-0.398,-9.629,2.744,0.66,-0.198,0.564,-16.4,40.9,11.1,107908,2016-08-02 15:31:16:812
-0.398,-9.629,2.744,0.66,-0.198,0.564,-16.4,40.9,11.1,108008,2016-08-02 15:31:16:912
1.81,-12.822,-0.387,-0.525,0.011,0.113,-13.6,44.8,1.9,108108,2016-08-02 15:31:17:012
1.81,-12.822,-0.387,-0.525,0.011,0.113,-13.6,44.8,1.9,108207,2016-08-02 15:31:17:111
-0.709,-12.342,-1.667,-1.121,1.62,-1.69,-13.7,45.7,1.7,108308,2016-08-02 15:31:17:212
-1.7,-3.185,-0.894,-1.121,1.62,-1.69,-13.7,45.7,1.7,108408,2016-08-02 15:31:17:312
-1.7,-3.185,-0.894,0.352,-0.647,0.055,-17.6,40.9,9.2,108509,2016-08-02 15:31:17:413
-3.354,-16.862,-4.084,0.352,-0.647,0.055,-17.6,40.9,9.2,108607,2016-08-02 15:31:17:511
-3.354,-16.862,-4.084,0.352,-0.647,0.055,-21.2,35.0,20.6,108707,2016-08-02 15:31:17:611
7.704,-19.609,-0.89,1.787,0.875,0.737,-21.2,35.0,20.6,108808,2016-08-02 15:31:17:712
7.704,-19.609,-0.89,1.787,0.875,0.737,-21.8,33.3,20.9,108908,2016-08-02 15:31:17:812
0.19,-9.193,-0.64,0.86,0.099,0.345,-21.8,33.3,20.9,109007,2016-08-02 15:31:17:911
0.19,-9.193,-0.64,0.86,0.099,0.345,-19.1,37.7,14.6,109107,2016-08-02 15:31:18:011
1.214,-9.193,-0.783,0.86,0.099,0.345,-19.1,37.7,14.6,109208,2016-08-02 15:31:18:112
-2.136,-12.239,-3.427,-0.419,-0.194,-0.122,-15.3,42.5,5.0,109307,2016-08-02 15:31:18:211
-2.136,-12.239,-3.427,-0.419,-0.194,-0.122,-15.3,42.5,5.0,109409,2016-08-02 15:31:18:313
1.445,-9.091,-0.122,-1.061,1.551,-1.3,-15.3,42.5,5.0,109509,2016-08-02 15:31:18:413
1.445,-9.091,-0.122,-1.061,1.551,-1.3,-13.6,42.4,5.5,109609,2016-08-02 15:31:18:513
-0.252,-6.055,-3.102,-1.061,1.551,-1.3,-13.6,42.4,5.5,109709,2016-08-02 15:31:18:613
-0.252,-6.055,-3.102,0.492,-0.422,0.521,-15.7,38.9,11.1,109808,2016-08-02 15:31:18:712
-0.015,-9.407,3.46,0.492,-0.422,0.521,-15.7,38.9,11.1,109908,2016-08-02 15:31:18:812
-0.015,-9.407,3.46,1.131,3.282,2.222,-17.8,35.2,18.6,110009,2016-08-02 15:31:18:913
5.045,-7.936,-5.007,1.131,3.282,2.222,-17.8,35.2,18.6,110108,2016-08-02 15:31:19:012
1.358,-10.477,1.854,0.385,0.566,0.652,-17.0,36.1,19.2,110208,2016-08-02 15:31:19:112
1.358,-10.477,1.854,0.385,0.566,0.652,-17.0,36.1,19.2,110309,2016-08-02 15:31:19:213
2.216,-12.511,-0.611,0.385,0.566,0.652,-14.6,39.3,12.9,110408,2016-08-02 15:31:19:312
2.216,-12.511,-0.611,-1.325,0.704,-0.516,-14.6,39.3,12.9,110508,2016-08-02 15:31:19:412
-5.059,-12.641,-2.095,-1.325,0.704,-0.516,-11.6,43.7,5.0,110609,2016-08-02 15:31:19:513
-5.059,-12.641,-2.095,-0.314,1.036,-1.759,-11.6,43.7,5.0,110706,2016-08-02 15:31:19:610
-2.747,-3.182,0.618,-0.314,1.036,-1.759,-13.3,42.2,6.0,110808,2016-08-02 15:31:19:712
1.301,-11.957,-7.014,-0.892,-1.987,-0.539,-13.3,42.2,6.0,110911,2016-08-02 15:31:19:815
1.301,-11.957,-7.014,-0.892,-1.987,-0.539,-16.6,37.9,13.9,111008,2016-08-02 15:31:19:912
-1.003,-6.85,4.375,-0.892,-1.987,-0.539,-16.6,37.9,13.9,111108,2016-08-02 15:31:20:012
-1.003,-6.85,4.375,-0.12,-1.399,1.789,-19.0,34.6,20.4,111210,2016-08-02 15:31:20:114
-2.859,-10.056,-0.451,-0.12,-1.399,1.789,-19.0,34.6,20.4,111307,2016-08-02 15:31:20:211
-2.859,-10.056,-0.451,0.983,0.574,0.922,-16.7,38.0,17.6,111408,2016-08-02 15:31:20:312
-4.325,-11.872,-2.868,0.983,0.574,0.922,-16.7,38.0,17.6,111511,2016-08-02 15:31:20:415
-4.325,-11.872,-2.868,0.983,0.574,0.922,-14.6,42.4,9.5,111608,2016-08-02 15:31:20:512
2.303,-11.1,-2.67,-2.065,0.724,-0.684,-14.6,42.4,9.5,111709,2016-08-02 15:31:20:613
2.303,-11.1,-2.67,-2.065,0.724,-0.684,-13.4,44.6,4.3,111810,2016-08-02 15:31:20:714
1.663,-8.782,-0.582,-0.508,0.718,-1.188,-13.4,44.6,4.3,111906,2016-08-02 15:31:20:810
-2.471,-7.654,-2.832,-0.508,0.718,-1.188,-15.7,42.3,8.0,112008,2016-08-02 15:31:20:912
-2.471,-7.654,-2.832,-0.847,-1.292,-1.092,-15.7,42.3,8.0,112107,2016-08-02 15:31:21:011
-3.47,-11.932,0.222,-0.847,-1.292,-1.092,-18.7,37.8,17.4,112208,2016-08-02 15:31:21:112
-3.47,-11.932,0.222,-0.847,-1.292,-1.092,-18.7,37.8,17.4,112307,2016-08-02 15:31:21:211
1.826,-18.954,3.61,0.525,-0.37,2.516,-18.7,35.7,21.7,112407,2016-08-02 15:31:21:311
1.826,-18.954,3.61,0.525,-0.37,2.516,-18.7,35.7,21.7,112508,2016-08-02 15:31:21:412
0.023,-9.871,0.183,0.823,0.251,0.679,-15.5,39.1,19.2,112607,2016-08-02 15:31:21:511
-0.067,-13.108,0.946,0.823,0.251,0.679,-15.5,39.1,19.2,112711,2016-08-02 15:31:21:615
-0.067,-13.108,0.946,0.823,0.251,0.679,-12.4,43.9,10.8,112808,2016-08-02 15:31:21:712
-3.944,-13.633,5.352,-2.321,0.276,-0.813,-12.4,43.9,10.8,112908,2016-08-02 15:31:21:812
-3.944,-13.633,5.352,-2.321,0.276,-0.813,-11.2,46.4,6.9,113008,2016-08-02 15:31:21:912
0.178,-5.024,0.28,-0.929,1.623,-1.089,-11.2,46.4,6.9,113108,2016-08-02 15:31:22:012
0.178,-5.024,0.28,-0.929,1.623,-1.089,-13.8,42.6,12.3,113208,2016-08-02 15:31:22:112
6.285,-17.081,-9.631,-0.929,1.623,-1.089,-13.8,42.6,12.3,113307,2016-08-02 15:31:22:211
6.285,-17.081,-9.631,-0.855,-0.386,-0.622,-16.0,37.7,22.4,113408,2016-08-02 15:31:22:312
-3.495,-3.209,-1.068,-0.855,-0.386,-0.622,-16.0,37.7,22.4,113508,2016-08-02 15:31:22:412
-3.495,-3.209,-1.068,-0.076,-1.296,1.692,-16.6,35.8,25.6,113607,2016-08-02 15:31:22:511
-2.6,-7.758,-2.073,-0.076,-1.296,1.692,-16.6,35.8,25.6,113709,2016-08-02 15:31:22:613
1.191,-9.849,0.93,1.132,0.754,0.617,-14.5,39.7,20.8,113808,2016-08-02 15:31:22:712
1.191,-9.849,0.93,1.132,0.754,0.617,-14.5,39.7,20.8,113908,2016-08-02 15:31:22:812
2.26,-12.095,-1.107,1.132,0.754,0.617,-14.5,39.7,20.8,114008,2016-08-02 15:31:22:912
2.26,-12.095,-1.107,-2.739,0.027,-1.022,-12.1,44.0,11.7,114108,2016-08-02 15:31:23:012
0.158,-9.167,0.368,-2.739,0.027,-1.022,-12.1,44.0,11.7,114208,2016-08-02 15:31:23:112
0.158,-9.167,0.368,-0.715,-0.668,-1.02,-11.8,44.6,10.0,114307,2016-08-02 15:31:23:211
-1.389,-5.52,-0.788,-0.715,-0.668,-1.02,-11.8,44.6,10.0,114408,2016-08-02 15:31:23:312
-1.389,-5.52,-0.788,-0.715,-0.668,-1.02,-13.7,38.8,17.4,114508,2016-08-02 15:31:23:412
-1.25,-5.637,-0.666,-0.474,-1.213,-0.628,-13.7,38.8,17.4,114608,2016-08-02 15:31:23:512
-1.394,-9.664,2.404,-0.474,-1.213,-0.628,-15.2,34.3,25.6,114708,2016-08-02 15:31:23:612
-1.394,-9.664,2.404,1.334,-0.884,0.797,-15.2,34.3,25.6,114808,2016-08-02 15:31:23:712
-1.984,-9.491,-2.417,1.334,-0.884,0.797,-12.2,34.9,26.9,114908,2016-08-02 15:31:23:812
-1.984,-9.491,-2.417,1.129,0.618,0.616,-12.2,34.9,26.9,115008,2016-08-02 15:31:23:912
0.901,-11.79,0.725,1.129,0.618,0.616,-8.6,39.2,22.4,115107,2016-08-02 15:31:24:011
0.901,-11.79,0.725,1.129,0.618,0.616,-8.6,39.2,22.4,115208,2016-08-02 15:31:24:112
-3.12,-15.545,2.444,-2.893,0.073,-1.296,-6.3,43.0,16.7,115306,2016-08-02 15:31:24:210
-3.12,-15.545,2.444,-2.893,0.073,-1.296,-6.3,43.0,16.7,115408,2016-08-02 15:31:24:312
0.955,-7.307,-0.414,-0.267,-1.181,-0.689,-8.0,41.6,17.7,115507,2016-08-02 15:31:24:411
4.204,-19.162,-11.578,-0.267,-1.181,-0.689,-8.0,41.6,17.7,115608,2016-08-02 15:31:24:512
4.204,-19.162,-11.578,-0.267,-1.181,-0.689,-11.0,36.1,24.3,115706,2016-08-02 15:31:24:610
-3.12,-19.595,-3.78,-0.474,-0.519,-0.266,-11.0,36.1,24.3,115808,2016-08-02 15:31:24:712
-3.12,-19.595,-3.78,-0.474,-0.519,-0.266,-11.7,31.9,29.8,115908,2016-08-02 15:31:24:812
-0.716,-7.125,-1.902,1.913,0.681,-0.382,-11.7,31.9,29.8,116008,2016-08-02 15:31:24:912
-0.716,-7.125,-1.902,1.913,0.681,-0.382,-8.5,33.3,29.6,116108,2016-08-02 15:31:25:012
-0.314,-9.757,0.208,0.665,0.346,0.527,-8.5,33.3,29.6,116209,2016-08-02 15:31:25:113
-0.314,-9.757,0.208,0.665,0.346,0.527,-5.6,37.6,24.6,116309,2016-08-02 15:31:25:213
4.066,-11.481,-1.034,0.665,0.346,0.527,-5.6,37.6,24.6,116409,2016-08-02 15:31:25:313
-2.383,-10.621,-4.373,-2.189,-0.268,-0.874,-4.1,41.2,20.0,116508,2016-08-02 15:31:25:412
-2.383,-10.621,-4.373,-2.189,-0.268,-0.874,-4.1,41.2,20.0,116608,2016-08-02 15:31:25:512
-1.68,-5.835,-0.394,0.02,-2.055,-0.589,-5.5,39.5,20.9,116708,2016-08-02 15:31:25:612
-1.68,-5.835,-0.394,0.02,-2.055,-0.589,-5.5,39.5,20.9,116806,2016-08-02 15:31:25:710
7.006,-14.541,-7.948,0.02,-2.055,-0.589,-6.5,35.5,26.3,116907,2016-08-02 15:31:25:811
7.006,-14.541,-7.948,-0.706,0.179,-0.859,-6.5,35.5,26.3,117006,2016-08-02 15:31:25:910
-3.842,-2.541,-1.094,-0.706,0.179,-0.859,-5.8,32.8,30.3,117108,2016-08-02 15:31:26:012
-3.842,-2.541,-1.094,2.073,-1.491,-0.224,-5.8,32.8,30.3,117208,2016-08-02 15:31:26:112
-6.029,-9.206,0.593,2.073,-1.491,-0.224,-1.0,34.7,29.8,117308,2016-08-02 15:31:26:212
0.637,-11.817,-1.428,1.028,0.311,0.682,-1.0,34.7,29.8,117408,2016-08-02 15:31:26:312
0.637,-11.817,-1.428,1.028,0.311,0.682,2.5,38.1,25.4,117508,2016-08-02 15:31:26:412
1.203,-12.99,-1.062,1.028,0.311,0.682,2.5,38.1,25.4,117608,2016-08-02 15:31:26:512
1.203,-12.99,-1.062,-2.25,-0.538,-1.302,5.3,41.2,21.1,117708,2016-08-02 15:31:26:612
1.394,-7.04,-0.453,-2.25,-0.538,-1.302,5.3,41.2,21.1,117808,2016-08-02 15:31:26:712
1.394,-7.04,-0.453,0.001,-2.106,-0.208,3.7,37.6,24.5,117908,2016-08-02 15:31:26:812
-1.612,-6.615,-3.078,0.001,-2.106,-0.208,3.7,37.6,24.5,118008,2016-08-02 15:31:26:912
-1.612,-6.615,-3.078,0.001,-2.106,-0.208,2.9,32.7,30.4,118108,2016-08-02 15:31:27:012
-3.179,-18.109,-2.522,-0.114,-1.365,1.557,2.9,32.7,30.4,118208,2016-08-02 15:31:27:112
2.066,-7.939,-3.288,-0.114,-1.365,1.557,4.6,30.0,33.2,118308,2016-08-02 15:31:27:212
2.066,-7.939,-3.288,1.106,1.246,-0.241,4.6,30.0,33.2,118408,2016-08-02 15:31:27:312
0.935,-9.376,-0.581,1.106,1.246,-0.241,7.2,34.4,28.2,118507,2016-08-02 15:31:27:411
0.935,-9.376,-0.581,-0.542,0.572,0.482,7.2,34.4,28.2,118609,2016-08-02 15:31:27:513
0.483,-11.587,-3.046,-0.542,0.572,0.482,8.2,38.4,22.1,118707,2016-08-02 15:31:27:611
0.483,-11.587,-3.046,-0.542,0.572,0.482,8.2,38.4,22.1,118808,2016-08-02 15:31:27:712
0.68,-8.158,0.6,-1.148,2.09,-1.164,8.2,38.4,22.1,118908,2016-08-02 15:31:27:812
0.68,-8.158,0.6,-1.148,2.09,-1.164,6.1,39.2,22.0,119007,2016-08-02 15:31:27:911
-3.707,-3.128,0.967,2.271,-0.79,1.306,6.1,39.2,22.0,119108,2016-08-02 15:31:28:012
-7.942,-13.637,3.958,2.271,-0.79,1.306,4.8,35.0,27.5,119208,2016-08-02 15:31:28:112
-7.942,-13.637,3.958,2.271,-0.79,1.306,4.8,35.0,27.5,119308,2016-08-02 15:31:28:212
2.441,-19.087,3.281,1.47,2.281,0.752,5.0,32.2,32.3,119408,2016-08-02 15:31:28:312
2.441,-19.087,3.281,1.47,2.281,0.752,5.0,32.2,32.3,119508,2016-08-02 15:31:28:412
2.368,-11.074,-0.658,0.867,0.73,1.015,8.6,34.0,29.8,119608,2016-08-02 15:31:28:512
2.368,-11.074,-0.658,0.867,0.73,1.015,8.6,34.0,29.8,119708,2016-08-02 15:31:28:612
0.448,-12.116,-5.655,-3.207,0.616,-1.477,10.6,38.2,23.5,119808,2016-08-02 15:31:28:712
0.448,-12.116,-5.655,-3.207,0.616,-1.477,10.6,38.2,23.5,119908,2016-08-02 15:31:28:812
0.384,-9.494,2.334,-3.207,0.616,-1.477,10.9,39.8,21.3,120008,2016-08-02 15:31:28:912
-3.316,-2.641,0.734,-0.898,-1.164,-0.861,10.9,39.8,21.3,120108,2016-08-02 15:31:29:012
-3.316,-2.641,0.734,-0.898,-1.164,-0.861,7.7,36.6,25.7,120209,2016-08-02 15:31:29:113
-5.502,-9.577,3.381,-0.276,0.866,0.066,7.7,36.6,25.7,120309,2016-08-02 15:31:29:213
-5.502,-9.577,3.381,-0.276,0.866,0.066,6.8,32.1,31.5,120406,2016-08-02 15:31:29:310
-0.391,-16.989,2.635,-0.276,0.866,0.066,6.8,32.1,31.5,120508,2016-08-02 15:31:29:412
-0.391,-16.989,2.635,3.5,0.742,-0.079,9.0,31.4,31.4,120607,2016-08-02 15:31:29:511
0.096,-9.814,-0.642,3.5,0.742,-0.079,9.0,31.4,31.4,120708,2016-08-02 15:31:29:612
0.096,-9.814,-0.642,0.25,0.208,0.252,11.7,35.4,26.5,120808,2016-08-02 15:31:29:712
1.356,-11.69,-2.556,0.25,0.208,0.252,11.7,35.4,26.5,120909,2016-08-02 15:31:29:813
-4.186,-11.081,-2.733,-1.41,-1.341,-1.278,13.1,38.7,21.7,121008,2016-08-02 15:31:29:912
-4.186,-11.081,-2.733,-1.41,-1.341,-1.278,13.1,38.7,21.7,121108,2016-08-02 15:31:30:012
-2.705,-2.337,1.222,-1.41,-1.341,-1.278,10.0,38.0,23.1,121208,2016-08-02 15:31:30:112
-2.705,-2.337,1.222,1.557,-1.399,0.633,10.0,38.0,23.1,121308,2016-08-02 15:31:30:212
-4.21,-7.273,-2.04,1.557,-1.399,0.633,7.4,34.0,28.7,121408,2016-08-02 15:31:30:312
-4.21,-7.273,-2.04,1.333,1.334,0.113,7.4,34.0,28.7,121508,2016-08-02 15:31:30:412
-0.143,-14.836,3.431,1.333,1.334,0.113,6.7,31.6,32.6,121608,2016-08-02 15:31:30:512
-0.143,-14.836,3.431,1.333,1.334,0.113,6.7,31.6,32.6,121708,2016-08-02 15:31:30:612
-0.249,-10.196,-2.943,1.511,1.325,0.743,9.1,34.8,29.0,121808,2016-08-02 15:31:30:712
1.201,-11.793,0.64,1.511,1.325,0.743,9.1,34.8,29.0,121907,2016-08-02 15:31:30:811
1.201,-11.793,0.64,-1.999,-0.007,-0.626,9.7,39.1,22.5,122008,2016-08-02 15:31:30:912
-6.329,-16.154,-7.104,-1.999,-0.007,-0.626,9.7,39.1,22.5,122107,2016-08-02 15:31:31:011
-6.329,-16.154,-7.104,-1.303,0.974,-1.405,7.9,40.9,21.2,122209,2016-08-02 15:31:31:113
-3.23,-2.291,2.391,-1.303,0.974,-1.405,7.9,40.9,21.2,122307,2016-08-02 15:31:31:211
-3.23,-2.291,2.391,-1.303,0.974,-1.405,5.3,36.4,26.5,122408,2016-08-02 15:31:31:312
3.766,-7.582,-2.238,-0.925,-1.6,-0.743,5.3,36.4,26.5,122507,2016-08-02 15:31:31:411
3.766,-7.582,-2.238,-0.925,-1.6,-0.743,5.7,32.0,32.3,122608,2016-08-02 15:31:31:512
-1.739,-8.538,4.525,0.297,-0.471,1.984,5.7,32.0,32.3,122708,2016-08-02 15:31:31:612
-3.371,-9.602,-3.533,0.297,-0.471,1.984,9.2,32.5,31.3,122807,2016-08-02 15:31:31:711
-3.371,-9.602,-3.533,0.297,-0.471,1.984,9.2,32.5,31.3,122908,2016-08-02 15:31:31:812
2.691,-12.002,1.335,0.848,0.055,0.674,12.0,36.5,25.8,123008,2016-08-02 15:31:31:912
2.691,-12.002,1.335,0.848,0.055,0.674,12.0,36.5,25.8,123107,2016-08-02 15:31:32:011
-5.796,-15.3,-2.322,-1.69,0.167,-1.372,12.1,39.8,21.7,123208,2016-08-02 15:31:32:112
-5.796,-15.3,-2.322,-1.69,0.167,-1.372,12.1,39.8,21.7,123307,2016-08-02 15:31:32:211
-1.145,-3.588,1.095,0.908,-2.6,0.348,8.5,37.9,24.0,123407,2016-08-02 15:31:32:311
-1.145,-3.588,1.095,0.908,-2.6,0.348,8.5,37.9,24.0,123508,2016-08-02 15:31:32:412
1.689,-7.812,-7.396,0.908,-2.6,0.348,6.2,33.8,30.1,123607,2016-08-02 15:31:32:511
-0.564,-5.869,6.314,-1.311,0.095,0.701,6.2,33.8,30.1,123707,2016-08-02 15:31:32:611
-0.564,-5.869,6.314,-1.311,0.095,0.701,6.5,31.7,32.2,123807,2016-08-02 15:31:32:711
-0.336,-10.366,1.926,0.956,2.342,0.539,6.5,31.7,32.2,123908,2016-08-02 15:31:32:812
-0.336,-10.366,1.926,0.956,2.342,0.539,9.2,34.8,28.1,124007,2016-08-02 15:31:32:911
3.548,-12.599,-1.161,0.956,2.342,0.539,9.2,34.8,28.1,124108,2016-08-02 15:31:33:012
3.548,-12.599,-1.161,-0.183,0.107,-0.566,10.0,38.4,22.5,124208,2016-08-02 15:31:33:112
-4.185,-13.539,1.383,-0.183,0.107,-0.566,10.0,38.4,22.5,124307,2016-08-02 15:31:33:211
-4.185,-13.539,1.383,-1.737,-0.349,-1.184,10.0,38.4,22.5,124408,2016-08-02 15:31:33:312
-1.065,-4.219,0.402,-1.737,-0.349,-1.184,7.6,38.9,22.6,124508,2016-08-02 15:31:33:412
6.013,-18.869,-12.384,-0.747,-0.565,-0.538,7.6,38.9,22.6,124606,2016-08-02 15:31:33:510
6.013,-18.869,-12.384,-0.747,-0.565,-0.538,4.8,34.6,28.1,124708,2016-08-02 15:31:33:612
1.083,-3.762,4.31,-0.747,-0.565,-0.538,4.8,34.6,28.1,124807,2016-08-02 15:31:33:711
1.083,-3.762,4.31,0.615,-1.979,1.091,3.9,30.8,33.2,124906,2016-08-02 15:31:33:810
-1.979,-6.713,2.229,0.615,-1.979,1.091,3.9,30.8,33.2,125008,2016-08-02 15:31:33:912
-1.979,-6.713,2.229,0.472,0.492,0.949,6.9,32.7,31.1,125108,2016-08-02 15:31:34:012
0.785,-12.267,-2.21,0.472,0.492,0.949,6.9,32.7,31.1,125207,2016-08-02 15:31:34:111
0.785,-12.267,-2.21,0.472,0.492,0.949,8.6,36.4,25.4,125306,2016-08-02 15:31:34:210
-2.933,-15.723,5.701,-3.236,0.435,-1.474,8.6,36.4,25.4,125408,2016-08-02 15:31:34:312
0.76,-4.357,1.685,-3.236,0.435,-1.474,8.0,38.9,21.7,125507,2016-08-02 15:31:34:411
0.76,-4.357,1.685,-0.148,-3.132,-0.46,8.0,38.9,21.7,125608,2016-08-02 15:31:34:512
7.952,-19.609,-13.567,-0.148,-3.132,-0.46,5.5,34.1,26.3,125708,2016-08-02 15:31:34:612
7.952,-19.609,-13.567,0.459,-1.349,1.042,5.5,34.1,26.3,125807,2016-08-02 15:31:34:711
-2.744,-0.453,-2.519,0.459,-1.349,1.042,5.3,29.9,31.7,125908,2016-08-02 15:31:34:812
-2.744,-0.453,-2.519,0.459,-1.349,1.042,5.3,29.9,31.7,126006,2016-08-02 15:31:34:910
-1.135,-7.069,-2.403,1.357,0.693,-0.252,8.2,29.8,31.9,126106,2016-08-02 15:31:35:010
-1.135,-7.069,-2.403,1.357,0.693,-0.252,8.2,29.8,31.9,126208,2016-08-02 15:31:35:112
2.409,-11.955,-0.171,-0.384,0.068,0.182,10.7,34.1,26.7,126308,2016-08-02 15:31:35:212
-4.471,-16.164,-0.011,-0.384,0.068,0.182,10.7,34.1,26.7,126407,2016-08-02 15:31:35:311
-4.471,-16.164,-0.011,-0.384,0.068,0.182,11.8,37.8,21.8,126508,2016-08-02 15:31:35:412
0.843,-6.675,-1.515,-1.184,2.078,-0.98,11.8,37.8,21.8,126608,2016-08-02 15:31:35:512
0.843,-6.675,-1.515,-1.184,2.078,-0.98,8.8,35.3,24.1,126707,2016-08-02 15:31:35:611
-0.882,-18.551,-10.561,2.185,-0.65,0.751,8.8,35.3,24.1,126807,2016-08-02 15:31:35:711
-0.882,-18.551,-10.561,2.185,-0.65,0.751,7.9,30.9,29.6,126908,2016-08-02 15:31:35:812
-2.024,-16.591,-1.95,1.689,1.719,0.419,7.9,30.9,29.6,127007,2016-08-02 15:31:35:911
-2.024,-16.591,-1.95,1.689,1.719,0.419,8.3,28.9,31.9,127108,2016-08-02 15:31:36:012
1.12,-6.264,-4.943,1.689,1.719,0.419,8.3,28.9,31.9,127207,2016-08-02 15:31:36:111
2.843,-9.858,0.403,1.134,0.408,1.002,10.3,33.2,28.4,127307,2016-08-02 15:31:36:211
2.843,-9.858,0.403,1.134,0.408,1.002,10.3,33.2,28.4,127407,2016-08-02 15:31:36:311
1.242,-10.056,-2.586,-2.298,0.808,-0.951,10.4,38.4,23.4,127508,2016-08-02 15:31:36:412
1.242,-10.056,-2.586,-2.298,0.808,-0.951,10.4,38.4,23.4,127607,2016-08-02 15:31:36:511
3.566,-9.997,0.573,-2.298,0.808,-0.951,7.1,39.4,23.6,127708,2016-08-02 15:31:36:612
3.566,-9.997,0.573,-0.749,0.609,-1.208,7.1,39.4,23.6,127807,2016-08-02 15:31:36:711
-1.189,-4.351,-2.178,-0.749,0.609,-1.208,3.2,34.3,28.8,127908,2016-08-02 15:31:36:812
-1.189,-4.351,-2.178,-1.003,-1.601,-0.882,3.2,34.3,28.8,128007,2016-08-02 15:31:36:911
-10.499,-18.592,1.505,-1.003,-1.601,-0.882,2.8,29.4,33.7,128106,2016-08-02 15:31:37:010
1.752,-8.925,-2.298,2.491,0.939,0.181,2.8,29.4,33.7,128206,2016-08-02 15:31:37:110
1.752,-8.925,-2.298,2.491,0.939,0.181,8.5,29.0,31.9,128307,2016-08-02 15:31:37:211
2.578,-9.331,-2.565,2.491,0.939,0.181,8.5,29.0,31.9,128407,2016-08-02 15:31:37:311
2.578,-9.331,-2.565,0.22,0.737,0.289,12.5,33.2,26.0,128507,2016-08-02 15:31:37:411
-2.929,-15.809,-1.366,0.22,0.737,0.289,12.5,33.2,26.0,128607,2016-08-02 15:31:37:511
-2.929,-15.809,-1.366,-1.378,-0.687,-1.719,13.0,35.3,22.3,128707,2016-08-02 15:31:37:611
2.192,-7.995,-1.62,-1.378,-0.687,-1.719,13.0,35.3,22.3,128806,2016-08-02 15:31:37:710
2.192,-7.995,-1.62,-1.378,-0.687,-1.719,9.2,32.4,25.4,128906,2016-08-02 15:31:37:810
-3.575,-5.08,-1.789,1.783,-1.604,0.738,9.2,32.4,25.4,129006,2016-08-02 15:31:37:910
-3.575,-5.08,-1.789,1.783,-1.604,0.738,7.4,28.0,30.1,129106,2016-08-02 15:31:38:010
-6.002,-17.032,-3.441,1.17,1.102,0.21,7.4,28.0,30.1,129206,2016-08-02 15:31:38:110
1.258,-8.137,-4.087,1.17,1.102,0.21,8.3,27.2,31.6,129307,2016-08-02 15:31:38:211
1.258,-8.137,-4.087,1.411,0.349,0.836,8.3,27.2,31.6,129407,2016-08-02 15:31:38:311
-1.672,-9.892,-2.251,1.411,0.349,0.836,10.7,31.9,27.1,129507,2016-08-02 15:31:38:411
-1.672,-9.892,-2.251,1.411,0.349,0.836,10.7,31.9,27.1,129607,2016-08-02 15:31:38:511
0.455,-11.118,-3.926,-1.523,-0.691,-0.867,12.4,35.9,22.7,129707,2016-08-02 15:31:38:611
0.455,-11.118,-3.926,-1.523,-0.691,-0.867,12.4,35.9,22.7,129807,2016-08-02 15:31:38:711
1.854,-8.059,1.206,-1.356,-0.199,-1.109,11.0,37.2,22.4,129907,2016-08-02 15:31:38:811
1.854,-8.059,1.206,-1.356,-0.199,-1.109,11.0,37.2,22.4,130007,2016-08-02 15:31:38:911
-3.341,-2.03,0.069,-1.356,-0.199,-1.109,9.0,33.2,27.4,130108,2016-08-02 15:31:39:012
-10.712,-18.283,0.857,-0.807,-2.145,-1.152,9.0,33.2,27.4,130208,2016-08-02 15:31:39:112
-10.712,-18.283,0.857,-0.807,-2.145,-1.152,8.3,30.1,31.3,130307,2016-08-02 15:31:39:211
2.907,-15.2,2.337,0.14,-1.955,1.97,8.3,30.1,31.3,130408,2016-08-02 15:31:39:312
2.907,-15.2,2.337,0.14,-1.955,1.97,10.4,31.6,29.1,130506,2016-08-02 15:31:39:410
1.477,-9.805,-1.509,0.495,0.516,0.834,10.4,31.6,29.1,130608,2016-08-02 15:31:39:512
1.477,-9.805,-1.509,0.495,0.516,0.834,10.9,35.4,23.5,130709,2016-08-02 15:31:39:613
-0.497,-13.123,-5.321,0.495,0.516,0.834,10.9,35.4,23.5,130808,2016-08-02 15:31:39:712
-0.497,-13.123,-5.321,-1.925,0.197,-0.932,10.9,35.4,23.5,130910,2016-08-02 15:31:39:814
0.037,-9.717,1.967,-1.925,0.197,-0.932,10.0,37.8,20.8,131007,2016-08-02 15:31:39:911
-2.804,-3.117,0.245,0.538,-2.182,0.068,10.0,37.8,20.8,131108,2016-08-02 15:31:40:012
-2.804,-3.117,0.245,0.538,-2.182,0.068,6.0,34.4,24.7,131210,2016-08-02 15:31:40:114
-8.365,-18.236,2.266,0.538,-2.182,0.068,6.0,34.4,24.7,131308,2016-08-02 15:31:40:212
-8.365,-18.236,2.266,-1.105,-0.745,0.134,4.0,30.0,30.7,131408,2016-08-02 15:31:40:312
6.1,-19.437,4.397,-1.105,-0.745,0.134,4.0,30.0,30.7,131511,2016-08-02 15:31:40:415
6.1,-19.437,4.397,1.042,1.451,0.448,6.3,28.6,32.1,131608,2016-08-02 15:31:40:512
0.608,-10.354,-1.018,1.042,1.451,0.448,6.3,28.6,32.1,131708,2016-08-02 15:31:40:612
0.608,-10.354,-1.018,1.042,1.451,0.448,8.5,33.2,27.9,131810,2016-08-02 15:31:40:714
1.876,-12.223,-1.112,-0.399,0.314,-0.32,8.5,33.2,27.9,131908,2016-08-02 15:31:40:812
-1.299,-8.849,0.818,-0.399,0.314,-0.32,8.7,36.9,23.5,132008,2016-08-02 15:31:40:912
-1.299,-8.849,0.818,-1.959,-0.32,-0.987,8.7,36.9,23.5,132110,2016-08-02 15:31:41:014
-3.574,-2.742,0.764,-1.959,-0.32,-0.987,6.0,35.2,24.8,132207,2016-08-02 15:31:41:111
-3.574,-2.742,0.764,0.553,-0.891,1.039,6.0,35.2,24.8,132308,2016-08-02 15:31:41:212
-3.918,-11.876,-3.571,0.553,-0.891,1.039,4.6,29.7,30.1,132406,2016-08-02 15:31:41:310
-3.918,-11.876,-3.571,0.553,-0.891,1.039,4.6,29.7,30.1,132508,2016-08-02 15:31:41:412
0.097,-14.488,1.762,1.188,0.775,1.354,5.2,26.6,32.9,132609,2016-08-02 15:31:41:513
0.015,-9.52,-1.049,1.188,0.775,1.354,5.2,26.6,32.9,132711,2016-08-02 15:31:41:615
0.015,-9.52,-1.049,0.916,0.661,0.837,8.0,29.4,29.7,132808,2016-08-02 15:31:41:712
2.436,-12.69,1.468,0.916,0.661,0.837,8.0,29.4,29.7,132906,2016-08-02 15:31:41:810
2.436,-12.69,1.468,0.916,0.661,0.837,8.6,33.4,24.5,133010,2016-08-02 15:31:41:914
-5.691,-13.329,-2.115,-3.174,0.166,-1.458,8.6,33.4,24.5,133108,2016-08-02 15:31:42:012
-5.691,-13.329,-2.115,-3.174,0.166,-1.458,7.1,35.0,21.6,133208,2016-08-02 15:31:42:112
-2.828,-3.512,0.619,-0.632,-1.424,-0.814,7.1,35.0,21.6,133307,2016-08-02 15:31:42:211
-2.828,-3.512,0.619,-0.632,-1.424,-0.814,4.4,31.6,24.6,133407,2016-08-02 15:31:42:311
0.309,-9.425,-6.406,-0.183,-0.331,1.0,4.4,31.6,24.6,133506,2016-08-02 15:31:42:410
0.309,-9.425,-6.406,-0.183,-0.331,1.0,3.6,28.5,28.9,133607,2016-08-02 15:31:42:511
-3.391,-8.996,2.645,-0.183,-0.331,1.0,3.6,28.5,28.9,133707,2016-08-02 15:31:42:611
-1.908,-10.275,-0.262,1.716,-0.038,-0.165,4.6,29.4,28.3,133806,2016-08-02 15:31:42:710
-1.908,-10.275,-0.262,1.716,-0.038,-0.165,4.6,29.4,28.3,133906,2016-08-02 15:31:42:810
1.422,-12.325,0.897,-0.038,0.051,0.328,6.5,34.0,23.5,134006,2016-08-02 15:31:42:910
1.422,-12.325,0.897,-0.038,0.051,0.328,6.5,34.0,23.5,134107,2016-08-02 15:31:43:011
-4.38,-14.557,4.001,-0.038,0.051,0.328,7.6,37.6,18.0,134207,2016-08-02 15:31:43:111
-4.38,-14.557,4.001,-1.676,-1.487,-1.138,7.6,37.6,18.0,134309,2016-08-02 15:31:43:213
-0.809,-4.559,0.396,-1.676,-1.487,-1.138,5.9,36.7,19.9,134409,2016-08-02 15:31:43:313
-0.809,-4.559,0.396,1.701,-1.316,0.795,5.9,36.7,19.9,134508,2016-08-02 15:31:43:412
4.869,-17.757,-10.738,1.701,-1.316,0.795,4.2,32.5,25.9,134607,2016-08-02 15:31:43:511
-3.964,-4.729,1.891,1.799,1.643,-0.016,4.2,32.5,25.9,134709,2016-08-02 15:31:43:613
-3.964,-4.729,1.891,1.799,1.643,-0.016,3.2,30.8,29.5,134808,2016-08-02 15:31:43:712
-2.888,-9.175,2.46,1.799,1.643,-0.016,3.2,30.8,29.5,134908,2016-08-02 15:31:43:812
-2.888,-9.175,2.46,1.181,0.008,0.458,6.2,34.2,26.0,135008,2016-08-02 15:31:43:912
-0.538,-12.478,-1.107,1.181,0.008,0.458,6.2,34.2,26.0,135106,2016-08-02 15:31:44:010
-0.538,-12.478,-1.107,-1.619,-0.242,-0.562,8.5,38.2,19.7,135208,2016-08-02 15:31:44:112
-1.176,-17.414,1.194,-1.619,-0.242,-0.562,8.5,38.2,19.7,135308,2016-08-02 15:31:44:212
-1.176,-17.414,1.194,-1.619,-0.242,-0.562,8.2,39.7,18.4,135408,2016-08-02 15:31:44:312
2.362,-6.744,-0.688,-1.305,0.863,-1.638,8.2,39.7,18.4,135509,2016-08-02 15:31:44:413
11.368,-19.609,-17.163,-1.305,0.863,-1.638,5.5,36.2,23.3,135608,2016-08-02 15:31:44:512
11.368,-19.609,-17.163,-0.957,-1.62,-1.494,5.5,36.2,23.3,135708,2016-08-02 15:31:44:612
-0.64,-8.739,-1.518,-0.957,-1.62,-1.494,4.6,33.2,28.7,135808,2016-08-02 15:31:44:712
-0.64,-8.739,-1.518,1.095,-1.529,1.303,4.6,33.2,28.7,135908,2016-08-02 15:31:44:812
-2.491,-7.475,-1.448,1.095,-1.529,1.303,6.7,33.9,28.1,136008,2016-08-02 15:31:44:912
-2.491,-7.475,-1.448,1.095,-1.529,1.303,6.7,33.9,28.1,136108,2016-08-02 15:31:45:012
-0.092,-12.006,-0.779,0.663,0.746,0.606,8.3,38.1,22.3,136208,2016-08-02 15:31:45:112
-0.092,-12.006,-0.779,0.663,0.746,0.606,8.3,38.1,22.3,136307,2016-08-02 15:31:45:211
-0.855,-17.694,0.117,-1.806,0.178,-1.253,8.5,41.0,17.9,136408,2016-08-02 15:31:45:312
1.595,-5.765,-0.53,-1.806,0.178,-1.253,8.5,41.0,17.9,136508,2016-08-02 15:31:45:412
1.595,-5.765,-0.53,-1.806,0.178,-1.253,4.5,38.8,21.4,136606,2016-08-02 15:31:45:510
2.075,-19.518,-15.751,0.88,-2.306,0.198,4.5,38.8,21.4,136708,2016-08-02 15:31:45:612
2.075,-19.518,-15.751,0.88,-2.306,0.198,2.8,35.5,27.9,136807,2016-08-02 15:31:45:711
-0.64,-11.752,-0.153,-0.545,-0.426,1.008,2.8,35.5,27.9,136908,2016-08-02 15:31:45:812
-0.64,-11.752,-0.153,-0.545,-0.426,1.008,2.8,35.5,27.9,137008,2016-08-02 15:31:45:912
3.276,-6.102,-3.25,1.171,0.633,0.111,3.3,33.8,30.4,137109,2016-08-02 15:31:46:013
3.276,-6.102,-3.25,1.171,0.633,0.111,3.3,33.8,30.4,137208,2016-08-02 15:31:46:112
2.123,-9.285,1.442,1.171,0.633,0.111,5.9,36.8,26.6,137308,2016-08-02 15:31:46:212
1.852,-12.746,-2.238,-0.147,0.699,-0.057,5.9,36.8,26.6,137408,2016-08-02 15:31:46:312
1.852,-12.746,-2.238,-0.147,0.699,-0.057,7.4,40.6,21.0,137508,2016-08-02 15:31:46:412
1.391,-9.759,-0.344,-1.028,2.278,-1.881,7.4,40.6,21.0,137606,2016-08-02 15:31:46:510
1.391,-9.759,-0.344,-1.028,2.278,-1.881,6.8,41.2,19.9,137708,2016-08-02 15:31:46:612
-1.906,-5.56,-1.347,-1.028,2.278,-1.881,6.8,41.2,19.9,137808,2016-08-02 15:31:46:712
-1.906,-5.56,-1.347,-0.002,-1.009,0.685,4.7,36.7,25.4,137908,2016-08-02 15:31:46:812
-0.441,-19.397,-0.193,-0.002,-1.009,0.685,4.7,36.7,25.4,138007,2016-08-02 15:31:46:911
-0.441,-19.397,-0.193,1.294,-0.367,1.78,4.2,33.1,30.9,138108,2016-08-02 15:31:47:012
11.359,-8.79,-2.697,1.294,-0.367,1.78,4.2,33.1,30.9,138208,2016-08-02 15:31:47:112
4.852,-9.38,0.161,0.581,0.851,1.449,5.8,34.4,29.4,138306,2016-08-02 15:31:47:210
4.852,-9.38,0.161,0.581,0.851,1.449,5.8,34.4,29.4,138407,2016-08-02 15:31:47:311
2.058,-11.408,-3.175,0.581,0.851,1.449,6.9,38.9,23.0,138510,2016-08-02 15:31:47:414
2.058,-11.408,-3.175,-2.977,0.47,-1.405,6.9,38.9,23.0,138608,2016-08-02 15:31:47:512
-0.293,-9.03,0.153,-2.977,0.47,-1.405,7.3,42.3,18.0,138708,2016-08-02 15:31:47:612
-0.293,-9.03,0.153,-0.713,-0.243,-0.937,7.3,42.3,18.0,138806,2016-08-02 15:31:47:710
-2.512,-2.116,0.702,-0.713,-0.243,-0.937,5.3,39.0,22.0,138908,2016-08-02 15:31:47:812
-2.512,-2.116,0.702,-0.713,-0.243,-0.937,5.3,39.0,22.0,139007,2016-08-02 15:31:47:911
-7.119,-14.247,0.559,-0.217,0.76,0.203,2.8,34.1,29.0,139108,2016-08-02 15:31:48:012
5.399,-19.609,4.97,-0.217,0.76,0.203,2.8,34.1,29.0,139208,2016-08-02 15:31:48:112
5.399,-19.609,4.97,2.789,1.409,0.217,2.6,31.9,32.0,139308,2016-08-02 15:31:48:212
0.425,-10.114,-0.546,2.789,1.409,0.217,2.6,31.9,32.0,139408,2016-08-02 15:31:48:312
0.425,-10.114,-0.546,0.427,0.646,0.055,3.8,36.8,26.2,139508,2016-08-02 15:31:48:412
1.12,-13.452,-1.849,0.427,0.646,0.055,3.8,36.8,26.2,139608,2016-08-02 15:31:48:512
1.12,-13.452,-1.849,0.427,0.646,0.055,4.0,41.5,18.9,139708,2016-08-02 15:31:48:612
-4.587,-13.609,-3.409,-1.457,-0.462,-0.774,4.0,41.5,18.9,139807,2016-08-02 15:31:48:711
-4.587,-13.609,-3.409,-1.457,-0.462,-0.774,1.8,41.5,18.1,139906,2016-08-02 15:31:48:810
-2.684,-2.837,0.937,0.826,-1.906,0.575,1.8,41.5,18.1,140007,2016-08-02 15:31:48:911
-1.66,-10.046,-3.32,0.826,-1.906,0.575,-1.1,36.1,24.5,140108,2016-08-02 15:31:49:012
-1.66,-10.046,-3.32,0.826,-1.906,0.575,-1.1,36.1,24.5,140208,2016-08-02 15:31:49:112
2.447,-14.172,1.914,1.264,0.86,-0.332,-2.3,31.9,30.6,140308,2016-08-02 15:31:49:212
2.447,-14.172,1.914,1.264,0.86,-0.332,-2.3,31.9,30.6,140408,2016-08-02 15:31:49:312
-0.16,-8.866,-1.234,1.018,0.877,0.621,1.4,34.0,28.9,140508,2016-08-02 15:31:49:412
-0.16,-8.866,-1.234,1.018,0.877,0.621,1.4,34.0,28.9,140608,2016-08-02 15:31:49:512
0.967,-12.695,0.289,-0.395,-0.595,-0.277,4.0,38.5,23.0,140708,2016-08-02 15:31:49:612
0.967,-12.695,0.289,-0.395,-0.595,-0.277,4.0,38.5,23.0,140807,2016-08-02 15:31:49:711
-2.47,-13.858,5.277,-0.395,-0.595,-0.277,5.3,40.9,19.6,140908,2016-08-02 15:31:49:812
-1.125,-3.918,1.338,-1.562,1.144,-1.224,5.3,40.9,19.6,141007,2016-08-02 15:31:49:911
-1.125,-3.918,1.338,-1.562,1.144,-1.224,2.9,37.9,23.3,141108,2016-08-02 15:31:50:012
7.784,-13.03,-6.494,-0.919,0.198,-1.577,2.9,37.9,23.3,141208,2016-08-02 15:31:50:112
